time,ped_id,ax,ay,az,gx,gy,gz,intent
12.1,1,14.939666253931856,0.029914343081977712,9.8109236776621,-0.08934390239543842,0.014801460727403515,-0.026154671678745484,0
12.2,1,-0.4986896207100978,-0.10581602436027036,9.644411249399127,0.03085703911326539,-0.00897551562277799,0.045802524174680725,0
12.3,1,0.062398762875653435,-0.026390392234925043,9.864583849076984,-0.015879896079933908,-0.01214507172337844,-0.0577657906890636,0
12.4,1,0.06209674643695445,0.24109548673225123,9.752874509338788,-0.03179285911509696,-0.06459649139692596,-0.005387340112074517,0
12.5,1,-0.3280860531334586,0.06359718144222097,9.767451060500557,0.09254479472521705,0.09424032001876365,0.09953613355372723,0
12.6,1,-0.2878375734341684,-0.22499044165673393,9.72496236534751,-0.06157199657869025,0.06482847886651576,-0.02775422287559275,0
12.7,1,0.26838036257755926,0.13084331415140188,9.870172543904532,-0.054932573268138364,-0.0002164290906568689,0.003528978120807621,0
12.8,1,-0.09335568073944213,0.06697727881595962,9.758579867112967,-0.004464647378476504,0.06770782920238566,0.11511615177366269,0
12.9,1,0.17322054972986178,0.12750402733897234,9.975944040412836,0.04073416169799268,0.050105454001096575,-0.09283243474202768,0
13.0,1,-0.17828446451115698,-0.3514939021617396,9.784265176288006,0.08221963215256078,0.01830723805429663,-0.019280008703525017,0
13.1,1,0.021258605056746527,0.08159493369951347,9.844211685246794,-0.03919933944352584,0.04079333624021254,-0.04545471596876326,0
13.2,1,-0.007420347734317337,-0.10017899472847419,9.98810418627193,0.04383548491049759,-0.07145611430131497,-0.08120199567428965,0
13.3,1,0.05890052090220119,-0.10825749812538366,9.867311310805363,-0.05516298132886163,0.05095647277181223,0.014373813798711998,0
13.4,1,-0.01564387309695752,-0.03993167848115724,9.912659292601823,0.02985710751368821,-0.02459184491021134,0.09519603092015945,0
13.5,1,0.32465569114668313,0.18110187777744155,9.374368707046955,0.027879880931577727,0.05509407903616326,-0.004255572528130336,0
13.6,1,-0.1533174273056424,0.3571416604412083,9.761903307791842,0.09018014237096018,-0.04236968683376425,-0.002387863081776522,0
13.7,1,-0.031929508549056594,-0.10125955543873005,9.658971647332649,-0.011351115799848748,0.008413889321134982,0.026045393757280957,0
13.8,1,0.1376041429421376,0.10438403789794998,9.493496681336792,0.06550983156328034,0.0048532217646311306,-0.06831952976334299,0
13.9,1,-0.04736229385413041,0.22399837438425854,9.946455515228257,-0.044802058076755545,0.0044081699151693075,0.0571563904320139,0
14.0,1,0.13908899633549357,-0.40803577837504224,9.922895476319265,-0.0012757767619478555,0.0984510865258178,-0.04102206831604034,0
14.1,1,0.1239778327614952,-0.041478307972553426,9.697560216157555,0.01963620440327292,-0.017304005546240658,-0.04820627928363487,0
14.2,1,-0.05189339795902127,0.2274030158097045,10.027251353865868,0.05670974200571697,-0.06608596521142711,0.01754223064958432,0
14.3,1,0.13806587483391816,-0.263166537655157,9.838516896218058,-0.03995083282763626,-0.01844647857535874,0.027714344241967826,0
14.4,1,0.09866079004265774,-0.16486053201925763,9.661946070816542,-0.08704945576715614,0.10326351230309881,0.03664347566248571,0
14.5,1,-0.06020567665286382,-0.048947053427027085,9.844699907363001,-0.005263383557875983,0.1391644871330233,0.02505622398875017,0
14.6,1,-0.1435083279672686,-0.1334448955219712,10.06669764873754,0.014865164032981604,-0.06845419929377365,0.04038006408452352,0
14.7,1,-0.20246532445065016,0.39174537007343657,9.818145682655507,-0.05113437344422497,-0.005361850933063689,-0.023820536614003487,0
14.8,1,-0.17924257584077097,0.05535227453270533,10.197477076997519,-0.050275125052401407,-0.030264780542045955,-0.0695076967142429,0
14.9,1,-0.012374553280723765,-0.02887037457783397,9.929641847058496,-0.03188923454184055,0.03681179269230264,0.022402480316621867,0
15.0,1,-0.05261099143436391,0.03974292263979931,9.85510577173942,0.0369476440294987,-0.013688917380776974,-0.005338189724023258,0
15.1,1,0.08923757084277596,-0.07595469221709575,10.004441531482698,0.020148189850301042,0.013482928171546527,-0.009023605979879694,0
15.2,1,-0.09881282002405371,0.15084758613399807,9.729866843315614,0.09203614624556274,-0.017419168953165375,0.038438154424159356,0
15.3,1,0.43141127550255176,0.0040487379506904935,9.646581094285166,-0.0418547596006152,0.021602018085241516,0.013717669056418713,0
15.4,1,0.3622502373465341,-0.49368327606897344,9.68897644973111,-0.05619763992457854,-0.0001853831913746419,0.1064548481564567,0
15.5,1,-0.1865146436106553,0.5158921658530197,9.609981770231679,-0.0546855411648616,-0.06307603571804626,0.06218377399529179,0
15.6,1,0.4036620205763467,0.17415103521600714,9.882007994444747,-0.04434172966244784,0.03114218875362979,-0.0008750671674641474,0
15.7,1,0.27914237968081473,-0.03783908311086592,9.946137076799905,0.05658692626807506,-0.020344929886665804,-0.004480066632118761,0
15.8,1,0.15831515061188392,0.1752539429333724,9.550385453863415,0.05922995855719146,-0.004856251312955829,0.08430569168402263,0
15.9,1,0.028056059447907712,0.1325791462685144,9.756841807180452,0.025926081650512724,-0.027858775117094205,-0.014459461118967535,0
16.0,1,-0.12546810840795605,-0.024177351417461794,10.00618325870465,-0.042156673374463244,0.005148048386728864,0.07022829986682395,1
16.1,1,0.14924017653237767,0.11502181324979908,9.961987832580885,0.024220945965883846,0.026746920801988122,0.03796905043065987,1
16.2,1,-0.056880121357836926,0.08214500054467291,10.067578384502603,0.04494161755194395,0.008597222158032925,0.0818810599447127,1
16.3,1,-0.47738559694796,-0.2693867738075817,10.046017188897652,-0.033608855591465675,-0.00872725159105362,-0.026975575199585874,1
16.4,1,-0.11040679873439828,0.014320896100935494,9.766642937349815,-0.1058993728686509,0.006401342133322755,0.04761602692122671,1
16.5,1,0.12057637340403504,-0.0122182833101374,9.943417545389387,0.05880354050918425,0.03037451201273584,-0.04103025478293156,1
16.6,1,0.12330953561891729,0.2776710447285266,9.7208435913594,0.020154446160644487,0.02837647444862141,0.06392169588994855,1
16.7,1,0.45337126744920053,-0.031251636971712925,9.975556692749452,-0.03650583957320413,0.07153796681789541,0.018022602278761384,1
16.8,1,-0.007869488106200863,-0.027788726957551954,9.57381760911817,-0.06818628695235748,0.0181028479665348,-0.02526478718772311,1
16.9,1,-0.4186953376872944,-0.007510698630474453,9.658252030102574,-0.03300534733392823,-0.015686686174977895,-0.02311181297077103,1
17.0,1,0.016705924380516046,0.03806247620247566,9.581961353006688,0.01894101051041068,0.0907709922521554,-0.028809972228877406,1
17.1,1,-0.1137390147569458,-0.08782234432504339,9.624655794441491,0.09531737137810112,-0.024107541176796324,0.008743373570133254,1
17.2,1,-0.1308425185784466,0.08538773594178362,10.04058701242156,-0.07743715189591453,0.1091302634879384,0.0493727968491377,1
17.3,1,0.0015555406993296322,0.02869367663785758,10.230689640023627,-0.007851620040130217,-0.03256725971900077,-0.016616682761203688,1
17.4,1,-0.008729997908825693,-0.17774302242503792,9.946518007804466,-0.01945654658024011,0.008082563243514173,0.017924725155577883,1
17.5,1,0.29197652296781035,0.09756802484197288,9.72348488774378,0.10800205057089113,-0.036990519954149384,0.09105861313680398,1
17.6,1,0.27157743673771684,-0.10850311271175608,9.475327777765603,0.025321711894505085,-0.0015859611268858723,0.045150571168821714,1
17.7,1,-0.10239935759208774,-0.4731347696648051,9.767037006007396,0.04857918099504249,-0.005108133392415373,-0.00628655494575605,1
17.8,1,-0.13806781912530888,0.03136783128173306,9.756357192440777,0.09747144209870157,0.07240326783209265,0.04730057583560434,1
17.9,1,0.23390974038284307,-0.061043468240797,10.046212306628512,-0.052748329408914864,0.08598389065389647,0.0345412967378645,1
18.0,1,0.0027739315186428703,-0.09699064225914594,9.653391121605662,-0.06088801231735189,0.04855860975103299,0.0004113379215618919,1
18.1,1,-0.06554720183410623,-0.10762024147092045,9.488066959037095,-0.011184912801927849,-0.03553797723303805,0.06170660132878132,1
18.2,1,0.02722818510806905,0.5542091112750868,9.599408158156017,0.04003442252786929,-0.017627196373643083,0.055620777308433345,1
18.3,1,-0.060635485393384585,0.009427689147126725,9.682260578978884,-0.03340453718918213,-0.14539908691400558,0.09724221002628185,1
18.4,1,0.022391800296058056,0.07952722236133063,9.761809977552895,0.01648528284505518,-0.003925036705206686,-0.005314762594192064,1
18.5,1,-0.2345855525748972,0.06629795304119691,9.896364240770644,-0.030555331257272913,0.033617718952240014,0.0045581657994720765,1
18.6,1,0.14878887929252274,-0.23961856085919983,9.706289228910988,-0.03088089421639656,-0.007550087502712336,0.06328779455992563,1
18.7,1,-14.965136930304551,-0.13708265283655383,9.829236837947887,-0.01793087659434282,0.012667393901324157,-0.004652329683599617,1
18.8,1,0.2848890754460827,0.2031592795305803,9.835454975362337,-0.027242665346783098,0.12052593315673593,-0.015544446918143055,0
18.9,1,14.947435770156535,-0.20048766144820554,10.102378476039801,0.0035486465760126438,0.07829460357090723,0.10701443444908337,0
19.0,1,-0.007256475442618482,0.2357307438268059,9.885525898495814,-0.00013069167795829966,0.09514834158599876,-0.05000456671175351,0
19.1,1,-0.21590259079705257,0.0733459710542994,9.698052659743084,0.0977505729512511,0.016753630257015206,-0.017982386740999275,0
19.2,1,0.10804266487571729,0.10608355814820376,9.950398906405518,-0.003412274195605792,-0.011109416365894048,-0.0014222762036966386,0
19.3,1,-0.29040929290069717,-0.0855285312275289,9.57744663396529,0.007433720702715323,-0.030313574601089313,0.07606171404736208,0
19.4,1,-0.11901778864285338,0.1637128644583733,9.734868716499143,-0.03565413330044681,0.013995266061713682,-0.0035954040358987527,0
19.5,1,0.2666448873816924,-0.08310091214202663,9.72282067424073,-0.1275145768685344,0.06373459097933791,-0.0928585654594946,0
19.6,1,0.12658260026412937,0.09738421342702189,9.357563015447907,-0.10136087343880135,-0.005620270327854893,-0.01745263981213011,0
19.7,1,0.035854070779769036,-0.18798696936364456,9.497550035335514,-0.12581205026041944,-0.032750575100169904,0.06248972429753657,0
19.8,1,-0.23512892508625455,-0.199703404684181,9.729477746400148,-0.021681443837638707,-0.0016202275127577379,0.019919432594423313,0
19.9,1,-0.1358289089131501,-0.13093991023806714,9.98490629867051,0.032325644339658614,-0.13147340049523434,-0.02422617286403342,0
20.0,1,-0.16790268907357497,0.0007079487368202182,10.155095199302215,0.05089488624725447,0.07913605554627277,0.043146661487751495,0
20.1,1,0.03409022884623932,0.23850289475029351,9.710668595088103,-0.02672922019651936,0.017863370940315832,0.013664157755302232,0
20.2,1,0.047229579238161117,0.036901068941443314,10.168302773410115,0.0611311225071132,-0.01662712418155073,-0.056869932912563106,0
20.3,1,-0.24640145988873702,0.24284530316200825,9.670034760815172,0.06386231391601975,-0.024683858214573706,-0.0035730271029725267,0
20.4,1,0.10151050713065175,0.08800174474328129,9.757577174024183,0.030426924147150064,0.022369714473434988,-0.03449633314555656,0
20.5,1,0.30665285068423387,0.38372836475632643,9.86727241037326,-0.04786151810475775,0.032621728278781625,0.06833345247641967,0
20.6,1,0.0661594979258302,-0.25058446741005486,9.361574372076586,0.09027552204991621,-0.02278036107077794,-0.0813586911719123,0
20.7,1,0.11147881617744455,0.051581547390789566,9.486921896280363,0.079422821334325,0.044108137749602316,0.060414283920422654,0
20.8,1,0.07654664148657501,-0.1371659178599014,10.114993760168886,-0.07955447272233872,-0.0005504724489840774,-0.15940046613667788,0
20.9,1,0.2167604110587399,-0.050948886293545326,9.678858567681253,0.003536478821017054,0.11604081168531687,0.026841343705371903,0
21.0,1,-0.22826536900830938,0.005767274407638493,9.84637878690602,-0.015270244273453594,0.08876612020947612,-0.06220901298852497,0
21.1,1,-0.37566624564631734,-0.20861722309673097,9.674509819550263,-0.01472379548764173,-0.08944979781439494,0.026292286870338834,0
21.2,1,-0.27814676846153774,0.049985848525474566,9.771740204059629,0.032840577114052465,-0.012223142374153437,0.015390483720641057,0
21.3,1,-0.03262077828718369,0.05026385555923493,9.748354038561112,0.026322236383064412,-0.056867650892644284,0.04428584286290008,0
21.4,1,0.5935125144496348,-0.02910599399655996,9.737491109519677,0.01875312115505623,-0.03436364645348796,0.03104018665378512,0
21.5,1,0.23515442788970922,0.04070972710733178,9.775748429413301,0.04654971560171804,-0.005636269646108471,-0.007373491403340983,0
21.6,1,-0.3525182170159952,-0.022369348925850262,10.11813342001378,-0.005517122810989813,-0.08254726392909004,0.025060481945922176,0
21.7,1,0.08835235660355338,0.37770856968108146,9.522330344099396,-0.06894106607145045,0.05162755752209687,-0.04991295187283106,0
21.8,1,-0.1642134702992415,-0.36974514241101725,9.931801240033792,0.045303848257373276,-0.0325545032623155,-0.024468499015752595,0
21.9,1,0.08413856800587352,-0.029164647801817857,9.662746560729097,-0.07857994134471541,0.10303682584257101,-0.08846745629678682,0
22.0,1,0.05326205462120323,0.25544419207819996,9.65468497569747,-0.017880115686556924,0.013258708419272678,0.009053246575473007,0
22.1,1,-0.11099067588694729,-0.10373073652662577,9.731243327508441,-0.0033060429407425194,-0.052144204099636084,0.01738029439985529,0
22.2,1,-0.11217649245383832,0.1003874083085214,9.559752864711957,-0.000571910891464922,0.03963369480521795,0.0100421684116547,0
22.3,1,0.42373313349607805,0.1631111135676461,9.883393820480059,-0.0199523364389492,0.023608775370136482,-0.01536596856592154,0
22.4,1,-0.28673907539571364,0.11370985568443173,9.768137195652175,0.025420002452117674,0.009955488084584314,0.0359618314292871,0
22.5,1,-0.11037194593085714,-0.3272219157274643,9.705360373383611,0.05847687780956249,0.03856049491951005,-0.06342058447675558,0
22.6,1,-0.2112887328371118,0.07421346896056738,9.855679807490676,0.0974409844182072,0.10444913571480446,0.04912675856989048,0
22.7,1,0.26992724564564685,0.10691785038458008,9.554970908646911,0.026832077624536634,0.055097155496671484,-0.0566456179538487,0
22.8,1,0.17713998543944387,0.22293879105946723,9.756957063413276,-0.07185255267063613,0.01593608294214968,0.08731036468605576,0
22.9,1,-0.32552664353349714,-0.05768572894694349,9.94055081187434,0.04673027582108216,0.006636907459994012,-0.04966746665006014,0
23.0,1,0.030903825938318686,-0.16980257504244492,9.675733636742441,-0.024682545279412965,-0.013755546882610735,0.020451736981367902,0
23.1,1,-0.2240683622134088,-0.08963591447518934,10.011632619011584,-0.045492479882029126,0.08491813610680898,0.06152053365860062,0
23.2,1,0.03114820934686749,-0.13337926081999626,9.851020461654462,0.030106256544637167,0.007271465505887681,0.04540476580099202,0
23.3,1,-0.18018161228948404,0.1400433451698959,10.081680156230686,0.005062868508114393,0.007892805499047443,-0.09222039965737197,0
23.4,1,0.020448061109902483,-0.02965092339404098,9.76048414119621,-0.10415214983292323,-0.021462332868882734,0.01592217223441871,0
23.5,1,0.39153864853274634,-0.14995062738894757,9.991022373356929,0.04670493844351378,-0.008643159009576276,0.010476148586509935,0
23.6,1,0.18577072553698495,0.0641276188302711,9.77887803292557,0.0804301509288627,-0.008117841184621248,0.016396520124962722,0
23.7,1,-0.11125370298230407,-0.028670600559153925,9.764245318809328,-0.005147420146809408,-0.021288665602047875,0.08581226949049856,0
23.8,1,-0.07622401466876165,0.08235328945543607,9.785790136182978,0.03970196132811593,-0.060787746021254085,-0.0804082538276381,0
23.9,1,0.39932085625325925,-0.19786043674337248,10.08740462123923,-0.06020869758478331,-0.04850294210938883,0.02482475112708621,0
24.0,1,-0.32196241943243065,0.3740760766741488,9.797730604389054,0.07682374736784804,0.03257413297936211,0.11524892235006208,0
24.1,1,0.2836485345427537,0.3390284825867737,10.15262641258782,0.015840723625440173,-0.0030974123435602552,-0.05433623508589002,0
24.2,1,0.08800984774765509,0.1298348079706505,9.953846307305108,0.030375198570340968,-0.0074309995173885805,-0.039500498630925494,0
24.2,2,14.838239342370644,-0.23605494825020196,9.548742812641326,-0.036493522037072894,-0.028569095447169124,0.013645151530744954,0
24.3,1,-0.39119175041016535,-0.025605768964140813,9.860800481966335,-0.00010914478446070534,-0.03133317142204204,-0.0420808754160309,0
24.3,2,0.1002908180824158,0.16916234301980745,10.024418472408613,0.09289393752862282,0.025271185350903547,0.03990449760155894,0
24.4,1,-0.1606089938649091,-0.04269538601336406,10.147928032671183,0.09270852527960582,0.023558237498826344,0.10185985915241012,0
24.4,2,0.12082742081347322,-0.3794691296396923,9.66934698563743,-0.033646974158150586,-0.11369011056787809,0.05271858148878779,0
24.5,1,0.22095265827471852,-0.11392618314982866,10.093147549292055,0.046912285148662886,-0.011471306995613328,0.04368798449685227,0
24.5,2,-0.09422522568779085,-0.08621536419941157,10.278444361213499,-0.05788797682514079,0.012997579765578644,-0.09982574259362832,0
24.6,1,0.23308670566180162,0.02718329258787272,9.829223416557042,0.010924012903433915,0.07697671923780026,0.030862606252788406,0
24.6,2,-0.10397730669714905,0.38311405412551514,10.081235605618172,-0.033576686357346876,-0.04467014658399873,-0.07479166404378518,0
24.7,1,0.07603585048727585,-0.025696414553950803,9.7677553156778,0.0017425750767469416,-0.010833513343503612,0.01815084008236038,0
24.7,2,0.02154733837540732,0.03745267130394073,9.770663083211113,-0.07568093992959825,-0.08907791255568137,-0.02043350749183773,0
24.8,1,-0.1481439368454322,0.21124278333979798,9.484663998452463,0.06390058250109767,-0.018943592886870968,0.020458439554316244,0
24.8,2,-0.17076416322304314,0.24504101574757567,9.657114235315326,-0.14795712205677686,-0.014017553075515827,-0.014784561724347417,0
24.9,1,0.22885617022392776,0.0336649787076916,9.519175760015301,-0.07700995787695218,0.02471642346043624,0.025449928823762687,0
24.9,2,-0.10822612027867062,-0.007696189335369672,9.709160529955682,0.02870974032806971,0.042261352275732605,0.06476903123345698,0
25.0,1,-0.15437808959434138,-0.4292121283203927,9.522641065186809,-0.03321451700629192,-0.049775307011091244,0.0776184026779061,0
25.0,2,-0.2098036075448286,-0.026965538549056412,9.642782246096537,0.09965256656575161,-0.05211424106096435,-0.0072005922272788975,0
25.1,1,0.0034532233822369323,0.12163384460607858,10.333428946200819,0.030188796693197517,0.002677839824319378,0.005395319561040238,0
25.1,2,-0.3357011012016222,-0.0737869150546114,9.452822119246827,0.02336258653524735,-0.030147300107031063,-0.01345324922430555,0
25.2,1,0.17230371431103852,-0.10449741356231597,9.967058190156816,-0.0402682872674493,0.0031932640257168396,-0.033040909473808985,0
25.2,2,-0.06272743770431338,-0.13547523924398397,10.029365059462487,-0.039733122300722706,-0.03573366120282825,-0.08842732627274211,0
25.3,1,0.09843929421157332,0.13194241785497998,9.893071893466303,-0.02868657931827582,0.06700177921325602,0.009578862752316208,0
25.3,2,-0.049897952242117294,0.035163206604907335,9.79378680173759,0.016558958844117056,0.04645844317283408,0.02248122912776082,0
25.4,1,0.002699425518899039,0.1809897876958267,9.617945067247787,0.06971273291239156,-0.06298892138103426,0.017417307912726093,0
25.4,2,-0.1142944641826445,0.26056589477797243,9.702022853069094,0.05199924998958814,-0.044775352294365044,0.003768512542616275,0
25.5,1,0.013207199745535768,0.006948752123698703,10.047150463093121,-0.030745099365755337,0.0386864312794997,-0.028939583990474707,0
25.5,2,-0.33097622437096264,-0.031135351067063128,10.356114937319811,-0.01897315675951649,-0.0862071022864419,-0.012874593016304474,0
25.6,1,-0.22318987067832463,-0.21135794514713108,9.902537651411398,-0.022416982692068273,0.0015569467975288266,-0.058428902365523006,0
25.6,2,-0.1588885074287756,-0.017055417280446416,9.853694220105874,0.02971850419520435,0.05610521325284538,0.016595979623756234,0
25.7,1,0.1298345746400694,0.09280140857228468,9.687410278204561,-0.01876922370917096,-0.020866729622990535,-0.025801838924246825,0
25.7,2,-0.05852970467988708,-0.6200122833263335,9.766002428475927,0.07284550287810115,0.03884374861954917,0.018002314612965097,0
25.8,1,0.10837522035345322,-0.05546690732191818,10.020977147954738,0.03261593100845727,-0.006634768546457129,-0.08733116459633038,0
25.8,2,-0.16728918244582872,0.18919569091259353,9.905753924473983,0.037055555182945114,-0.0510498599876155,-0.12258401395438041,0
25.9,1,-0.06730060168784192,-0.11038714450540976,9.951979219328074,0.06910266873356974,-0.028150173279170788,-0.015377122703681887,0
25.9,2,-0.6192870206912813,-0.2864690797012261,9.692509914454554,-0.03457418248205709,0.023194188517525628,0.09525347756246343,0
26.0,1,-0.10346304040566218,0.20276882577408306,10.066878984308994,-0.07556017860747268,-0.023202974010468513,-0.032070676857200595,0
26.0,2,0.4135610697909205,0.20917383166234524,9.943628341522043,-0.056554639717683465,-0.027451297139258608,0.022329430283408596,0
26.1,1,-0.012795925953972507,0.15071791205691754,9.546233442214803,0.02571101804628132,0.052483375499038004,-0.056580330672251045,0
26.1,2,0.013013250710059807,-0.3342774470603143,9.84325752814835,-0.032357852739443464,-0.014553781951702602,-0.07686838834515225,0
26.2,1,-0.23251725672123708,-0.3288625474433674,10.218423557909462,0.0077139720347823015,0.0072286720196769495,0.03209937321418673,0
26.2,2,0.030179042090147812,-0.001607976858018781,9.92754068864318,0.023902632271641445,0.06173497941954808,-0.03443418630888458,0
26.3,1,-0.1375548799676232,-0.21990272767626623,9.69197748495922,-0.0369455536677341,0.08346856919855111,-0.004995574701860743,0
26.3,2,-0.004870673039693404,-0.10876551990970673,9.419963769332856,-0.001521992007179799,-0.0360821794375203,0.07692701024911658,0
26.4,1,0.29918186874749425,0.07973108227203438,9.654761765407232,0.04905604385888723,-0.009515435702535234,-0.04617637413711798,0
26.4,2,-0.2376683313423833,-0.06725270330993768,9.810461826622586,-0.07391217698913552,-0.009160992734068632,-0.024684002388252614,0
26.5,1,-0.15729081380897822,-0.5167082539475449,9.865792258409565,-0.04690908498379942,-0.017875966824668684,-0.0192061522526463,0
26.5,2,0.07042903604874624,0.3161376575285961,9.776077041860747,-0.03430466730936385,-0.0229119045204644,-0.011349318410879881,0
26.6,1,0.014196513050779359,0.06209726088084677,9.543821859063641,-0.039461251422498164,0.010486714070736935,0.003454093999234322,0
26.6,2,0.2468780208867441,0.40676593707300956,9.49256233419127,0.03529619877870148,0.008542336900384508,0.053072996791831466,0
26.7,1,-0.12212957968813604,-0.11225469890422826,9.641644865076454,0.04147764117987529,-0.005038875172121634,-0.026121346043380497,0
26.7,2,-0.1107013017582297,-0.03496429925372848,10.207917141318434,0.024969105508674046,-0.011874011159570465,-0.008474575461836753,0
26.8,1,0.013173515571844971,0.01995897016854177,10.055306882806692,-0.05106031329061872,-0.028746962947999683,-0.027756700246161694,0
26.8,2,0.24140874091725084,-0.30310187516641973,9.779080294281117,0.028185764210464162,0.0024724675894716233,-0.11907801592916085,0
26.9,1,0.42173966743866753,-0.3258680970068201,9.647251260000136,0.02312373082501421,-0.028363811575013394,-0.020333532566075715,0
26.9,2,0.23967178491210495,0.2196088616060381,10.029200486410167,0.022789091782808895,-0.05612865347406892,-0.04437993776244021,0
27.0,1,-0.17589122027556844,-0.020218751447242667,9.71344205156421,0.00816321918835812,0.06181554878178344,-0.10618207274371971,0
27.0,2,-0.005331390497319851,0.23977870226521772,9.870801667363478,-0.0986122379787815,-0.002100916507022313,0.014229340176262094,0
27.1,1,-0.13644373564390905,0.24228371074122595,9.846510475804983,0.045444438786565414,0.06508236935592254,-0.05856699111203426,0
27.1,2,-0.23701766131516777,-0.31223192241642284,10.046895536554272,0.029111739096807556,0.02636296871306784,-0.005486485107617983,0
27.2,1,-0.25086660515250486,0.06333561398580459,9.71219219630486,0.01965042968449002,-0.03144061617976444,0.01925460185628665,0
27.2,2,-0.03739621953044574,0.2530632047927409,9.888144178041676,-0.01685325030720342,-0.03593190070066695,0.041292853305935975,0
27.3,1,-0.042352155584932785,0.21976305572477872,9.78032297979,0.051887137379252005,0.004263871189309077,-0.04459584440086194,0
27.3,2,0.17450491175293958,-0.07194822138971894,9.642594669261591,-0.019509624545967597,-0.01730353123826876,0.046271687394600705,0
27.4,1,0.2883448919822804,-0.3484314452854497,9.782462755178999,-0.031686911976863505,-0.009831586261312726,0.04523097506584649,0
27.4,2,0.3430268184602713,0.17022511275391483,10.121052061666912,0.01566621701044429,0.05283650986154997,-0.017494167215117925,0
27.5,1,-0.15965024719660798,-0.1792001191496887,9.961990658041634,-0.07074428945900071,0.033971194380452034,0.010248774376436556,0
27.5,2,-0.12497647290582921,0.035816309014972326,9.938262738550035,-0.00968825156324964,-0.006498911681342053,0.028571233280048708,0
27.6,1,0.09657769814054694,-0.22253966146140636,9.751808484615294,0.012764946796500618,0.03361662516031213,-0.03743658798470686,0
27.6,2,-0.2515271539292809,0.050936088417167694,9.591603024502769,-0.1355395997926534,0.04346528119159676,-0.03506468059790583,0
27.7,1,0.07853489936717709,0.257882213263019,9.870367547334885,0.01225254173768394,0.061691654069212745,-0.02415477416466692,0
27.7,2,-0.09463447036589107,0.13559805020708277,9.712332113322226,-0.04468848475100616,-0.0718198691430742,0.020397987491697373,0
27.8,1,0.19386111967993025,0.37957331578662346,9.86299506137803,-0.011348889215674035,0.03136367647931853,-0.0028838291548075254,0
27.8,2,0.0006888304274099967,-0.31321100139640023,9.920477746308574,-0.009125170701121562,-0.012982677209258704,-0.004984067109448428,0
27.9,1,-0.14810175801781766,-0.033690314105598695,9.693375112149246,-0.09741402604844838,-0.06027656870798829,0.022846946180776647,0
27.9,2,-0.193331211549982,-0.04727718147703333,9.907471005118735,0.0778739112373241,-0.028322371554348042,-0.0015647648524447534,0
28.0,1,0.235260997980981,0.05716197793997707,9.929576037419091,-0.011002757794824855,0.03133804576721377,0.006280834390120938,0
28.0,2,-0.005355895388058177,0.2899227205929055,9.672928832089978,0.015179941495606706,0.05207718779747105,0.003148246565780921,0
28.1,1,-0.04469362523571224,0.12946184990490078,9.854368547246425,0.010901420248253971,0.026195374535723855,-0.020358163554375957,0
28.1,2,-0.2603655616140664,-0.08063989748285233,10.039240907653088,-0.043544197285660995,-0.06442650049894184,-0.021115123921597763,1
28.2,1,0.023614018948023688,0.10047301716450928,9.479852701759079,-0.029779102888349215,-0.041534798773553594,0.06289846763411037,0
28.2,2,-0.3393907782481704,0.05172694399926493,9.802537345778381,-0.04350050403843988,0.03902037734686916,0.02668450834557308,1
28.3,1,0.19549737543482557,0.04425081315352007,10.001366902917088,0.05025623938691688,0.09137110203138736,0.015830329872522166,0
28.3,2,0.3178165381505647,0.13326509771378714,10.151806443978709,-0.05981284027142145,-0.010530131794675003,0.08209055159177574,1
28.4,1,0.34735212931068926,-0.03170745845673994,9.792085923346697,0.014942302391930016,0.02255843473894595,0.03190657550834788,0
28.4,2,-0.060056152308350985,0.28023500505664245,9.894443493670451,-0.026850634503448708,-0.023662767335956,0.002866148117794245,1
28.5,1,-0.03330590302585115,-0.16885952756619135,9.635208353338179,0.045582970037114784,-0.022773657307980633,0.09153449144834058,0
28.5,2,-0.015595834344518717,-0.1945732859541103,9.685585089599792,-0.06832761958445206,-0.019284103987768916,-0.04003749177821721,1
28.6,1,-0.27209357051574423,-0.31417031751301416,10.071051360006424,-0.041133847426574416,-0.052320764789774966,-0.09381175402680825,0
28.6,2,-0.10357611016408341,-0.3657155257216928,9.86424788612061,0.04923879396405717,-0.002298111621983867,0.04336663886928962,1
28.7,1,-0.37253571315703454,0.07216174039272163,9.915313671142025,0.012617277130981569,0.009461336553731157,0.03359303419137443,0
28.7,2,-0.19069110941889397,0.11180567004741811,9.42742045737667,0.043405824383760616,-0.023151260370700685,-0.01075480536519757,1
28.8,1,-0.17703587975847992,-0.11404882297702512,9.6097936556863,0.05683349611017085,0.00803329088971502,-0.06931665486117711,0
28.8,2,0.13929662321575217,-0.14790197840530914,9.51732617477012,-0.09366568908451137,-0.05192013923426572,0.06524180052257103,1
28.9,1,0.40172615005183565,-0.010238019287087157,10.14299770744941,0.11013317550303636,0.057360129491188364,-0.04349687666659868,0
28.9,2,-0.02029656061292793,-0.37021400154820094,9.7702122340444,0.04462998593229151,-0.03745515748236756,-0.019716216625900954,1
29.0,1,0.07141335681433994,0.170770534420314,9.928184104915426,-0.0334265492552445,0.04124852893310192,-0.02812664967331054,0
29.0,2,0.16237775501626528,-0.026383981764977582,9.963706905432229,-0.06126531634337282,0.09834939280514642,0.06080134451520841,1
29.1,1,0.0390877927945938,0.27082631759746767,9.998871879900786,0.14898513449109135,0.06720548711770676,0.031920433246862376,0
29.1,2,0.017342334088659726,0.21604892588801802,9.982424545391163,-0.03245559939890553,-0.020918053812436097,0.006478302110140483,1
29.2,1,0.3687400435671721,0.615733448786292,9.78967715128605,-0.06815387609822714,0.042570497472070375,-0.07889260856293147,0
29.2,2,0.007957698553037787,0.09128576511896486,9.781427145385434,-0.05591667915059485,-0.04867648107218408,0.03329789284739298,1
29.3,1,0.16969740835540773,0.017882696820227844,9.861557405822882,-0.03336715349551438,-0.0041214777813648185,0.003121269307204362,0
29.3,2,0.008370640461150339,-0.051213962878338085,9.964662752531817,-0.07777696597413832,-0.023127967549906543,-0.045120713068433266,1
29.4,1,0.07485928743997679,-0.0954595484774604,9.94185542546772,-0.00230463636476485,0.0812153880368226,0.0364257918424268,0
29.4,2,-0.05039357927569649,0.05122743630704675,10.04892671057713,-0.036306079472297755,-0.06032513617815164,-0.0009283351764416781,1
29.5,1,0.18674061336491438,-0.0567564479657252,10.275646597486464,0.09056022476464777,0.027171194047561815,-0.02441958430806339,0
29.5,2,-0.3286606876366732,0.006728120972589929,9.361767000734268,-0.012226735105840233,0.031087697252952018,0.07508943682104886,1
29.6,1,-0.07860540040239494,-0.01740573833809385,9.640824366654815,-0.0340853412472273,0.00897304701345523,-0.0205232188380951,0
29.6,2,0.2600728623793782,-0.028844635945556942,9.612301632864718,0.020684258242123832,0.11393235723350557,-0.012372477646516996,1
29.7,1,-0.12087608369825596,0.04597112442764004,10.062373102909122,0.021881693068271875,-0.014606718211224588,-0.03180087848820563,0
29.7,2,0.24600309418275904,-0.08153213427110448,9.921534872938537,-0.03618747324172335,0.056056758714953164,-0.0788115040620824,1
29.8,1,0.11033695523307721,0.13006210165447332,9.861262699288853,-0.006338088684369907,-0.09851696464261928,-0.002427165179771338,0
29.8,2,-0.045609709069305816,-0.4697788453023269,9.902651766078112,0.03111103171210295,-0.019000446024725826,0.00318537286342143,1
29.9,1,-0.09934466252726873,0.13390364221023607,9.816411712749636,-0.005111543043759163,0.00030945366470748015,-0.021378570242128244,0
29.9,2,0.17104903416081746,0.08566278745849153,9.88105038565324,-0.018839615600779694,-0.10211148729093336,-0.049557038030982214,1
30.0,1,-0.046346626098455974,0.038901239235474006,9.801450668604279,-0.029086270790582448,0.11918277055933364,-6.862513802615355e-05,0
30.0,2,-0.29848262810658177,0.1937633204331655,9.889752826972652,0.01670444404320369,0.016348830062764306,0.02590286056365762,1
30.1,1,0.18318403273845071,0.1383283066956374,9.739939078770178,-0.02027391148524061,0.015263729437748173,0.033089090045106295,0
30.1,2,-0.29822282538554257,0.29077850530855875,10.105330355283584,-0.018717129808509002,-0.055274928499244015,-0.02615747511169618,1
30.2,1,-0.04450755786709097,-0.0896029202243956,10.172671901642506,-0.009518040339543274,0.08131133042916001,0.014163267517806305,0
30.2,2,0.21864198280067104,-0.07271131690550119,9.787054945222655,0.04087472035001507,0.04933010282498912,-0.07319074974952476,1
30.3,1,-0.05912620775722386,0.1458683424686247,9.71639792242264,-0.018459874930296927,0.019362865156914093,-0.005195168974189417,0
30.3,2,0.007970830123847295,0.18183361655385322,10.037122008792378,-0.02347401500785342,0.010213102000020222,-0.10100863733300101,1
30.4,1,-0.06077253967272114,-0.15899134158944983,9.556355628190785,-0.08718692944699012,0.0010183592732318288,0.06958182880784872,0
30.4,2,-0.27302157599326665,-0.20044897583066842,9.562598694317357,0.004652677751585419,-0.019088629936591897,0.04444874004810906,1
30.5,1,-0.1559180551803071,0.06732571234383597,9.566654490191882,-0.04285726242561871,-0.10218479176593992,0.009566120228236184,0
30.5,2,0.10564505693312805,-0.19844580330962858,10.00466447269001,-0.016805769174167234,-0.012999700832352502,-0.022438097421740313,1
30.6,1,0.16235115286288215,-0.00864535387708012,9.631236651301235,0.08654492348241795,-0.03359843172588155,0.03504890442826391,0
30.6,2,0.03056757671570888,0.5044213848135596,9.995729927007629,0.01675635514854807,-0.06094663317152835,0.020374195242287275,1
30.7,1,-0.2649148644312468,0.38938037155585264,9.61394619268398,0.00290423103985798,0.009467999577382523,0.07626988684457083,0
30.7,2,0.4476468375220026,0.04875086319343202,10.00258575581855,-0.04824924768143875,-0.12507353556986886,0.08498864152105545,1
30.8,1,0.04575699060999404,-0.0589808117172478,9.601469797605585,-0.001409690198367825,0.01555277662369168,0.091104687582501,0
30.8,2,-14.920125187964377,0.22669246111961097,10.088961199910115,0.02460050604466878,-0.023834491257422465,0.023299770954093465,1
30.9,1,0.315396394072954,0.1810843849558676,9.642893781462135,0.052576827348983925,-0.0669734911983551,-0.04856756745201449,0
30.9,2,-0.007354383822952952,-0.036899112991166994,9.628862288065166,0.03259325547759022,-0.03413076625946424,0.027811581896024624,1
31.0,1,0.2617531479182581,-0.07244673481838364,9.535603248096578,0.019116606427715867,0.02701694703328557,0.00340025705241929,0
31.0,2,-0.027985428115026818,-0.2792932894146336,10.357919305691027,-0.03661127123317082,-0.015029317579026766,-0.005605494705355964,1
31.1,1,-0.03910946583323685,-0.15985836096416461,9.704667477483572,-0.05928399607709899,-0.03924358385106364,0.05862567216121322,0
31.1,2,-0.0016308627484466509,0.2589920858592006,10.07909709873009,0.026967588136557592,0.011289775407405602,-0.06319767658524847,1
31.2,1,0.0660059656821804,0.3502513943489669,9.56511566441017,-0.057660305983558584,0.09443629272391946,-0.018868449259191043,0
31.2,2,-0.0016242187654854788,-0.33545699079203667,9.868033566472635,0.050046724615820465,0.04619887787457224,0.0022097454915612673,1
31.3,1,0.06627932823696946,-0.03755160458047392,9.91588272875117,0.05132932657389078,-0.03951478868873352,0.011183975902740739,0
31.3,2,-0.12511849176839215,-0.2812126398944288,9.966750860647833,0.0561055120075482,0.027107876870527178,-0.03920177142493563,1
31.4,1,-0.14260934762205696,-0.04441968721195923,9.996455594186259,0.04763549663533537,0.020794465208288884,-0.054895610259851284,0
31.4,2,-0.11847833194168784,0.006767564374194911,9.97446509817079,-0.10830064069546184,-0.09474242080906387,0.03712312110742088,1
31.5,1,0.17866838364809579,0.1254397519491731,9.842294065111915,0.06777743612941474,-0.006195234798901841,-0.030868711922756167,0
31.5,2,0.1627953936392944,0.1204562514036714,9.945789950282506,-0.015806936820896386,0.07072633955116307,0.012146899126635,1
31.6,1,-0.02153440999430388,0.10865099501880343,9.464012616326562,-0.019004681533277255,-0.025909721156139473,-0.032076753690883815,0
31.6,2,0.16900905456478987,0.20892152257217758,9.556540128209793,-0.025250850991873432,0.012469021532790078,-0.07373045826537805,1
31.7,1,-0.010507091537374297,0.40287577586244416,9.76560892832138,-0.01062751294589318,-0.010701462550534592,-0.0182327078652723,0
31.7,2,0.4255373323785001,-0.0314462445837358,9.839375876872431,-0.016227266607191575,-0.01377302011283428,0.03993953302730632,1
31.8,1,0.00968088866845709,-0.35195236717520645,9.728064127568965,0.08875475253684822,-0.00026955891021169024,-0.0075073942458134596,0
31.8,2,-0.00319484944904705,0.406622099485512,9.998320219725391,-0.11641366242463838,-0.017091203013091968,0.1119743520020998,1
31.9,1,0.08439424720266747,0.06611912166668979,10.142163538642498,0.07031671734612453,-0.005542348744736818,0.05876121472002224,0
31.9,2,-0.015803580347449334,0.35544660376923987,9.852600142094882,0.03785114326360773,-0.04021360472977337,0.012612487667529962,1
32.0,1,0.024051652712725774,-0.1567344240094768,9.713350166016443,0.0968953058708951,-0.019097981393765687,0.011935813860362165,0
32.0,2,0.11165860548453972,0.05642811845492807,9.855214878148924,-0.09553250484419135,0.037247590244996374,0.025311236035970092,1
32.1,1,-0.029399802910236684,-0.004911241065156251,9.72125974499083,-0.11523976067352154,0.044754527227468345,0.041909850056781425,0
32.1,2,-0.19830346834422805,-0.043184944823443906,9.204409692403228,0.05333092456219708,-0.13940355472360935,-0.008113818964385506,1
32.2,1,0.3512557430471516,-0.1437467149128616,9.421360853691825,0.03716360703464799,-0.012073909474405418,-0.09142586839387357,0
32.2,2,-0.5688515456723123,-0.16786498123967894,10.096971505908776,0.036692396571079276,0.029145464253247034,-0.07478748080925446,1
32.3,1,0.04891962196459257,-0.05599013934850205,9.548453691477123,0.002721214225786991,0.01813046540171514,0.013554911422198385,0
32.3,2,-0.24429208563494187,-0.014852729758624061,9.82912013952399,0.08261666531050055,-0.0017083919742186063,0.028898685629232798,1
32.4,1,0.07630097771881225,0.09715665565848083,9.768644821821805,0.05523030171699435,0.03413898004395329,0.007750488587089626,0
32.4,2,-0.1564548447166594,0.11569916472041673,9.845406183308922,-0.08364646555921307,-0.0023985730573841506,-0.0772685261596323,1
32.5,1,0.2073823801555363,-0.03753376441702545,9.864503363325735,0.02341117483678805,0.020813938785828073,0.009973334140754004,0
32.5,2,0.16327931616706956,0.02244694252569193,9.58504878828724,0.08382919660789787,-0.07850672117153719,-0.017599472478622945,1
32.6,1,-0.3612367128310116,-0.08975302732070736,9.709769329083747,0.0288345619767513,-0.07329212529402647,0.07299106018753386,0
32.6,2,-0.11563329300012158,-0.09850516429410745,9.945098327305011,-0.01229595056737005,-0.013760429282923582,-0.012661368099976778,1
32.7,1,0.028986242101833034,0.12003028560485361,9.7817081852754,-0.05291794824621691,0.007572765530073225,0.052762256401041645,0
32.7,2,0.010113806027038479,-0.10096104856473509,9.750591591587735,-0.017924700907665205,0.054705882980742374,0.011840572217340901,1
32.8,1,0.24170913215169465,-0.12458788505470902,9.633521489800092,0.0016817472978861053,-0.016539971580193786,-0.050494803779093815,0
32.8,2,-0.2892495241058936,0.09771808077328374,9.90652646760169,-0.00021187030932471506,-0.03238207974168885,-0.016644242555744645,1
32.9,1,0.005240561748631269,-0.00771588839189097,9.819302036954015,0.039229539438435664,-0.03575707931194871,-0.07661925428614055,0
32.9,2,0.18043519374879957,-0.006164317882836957,9.840663544329887,-0.0883352666419967,0.02380082542583089,0.02241435424167044,1
33.0,1,0.19970347584340162,0.40762817359114445,9.7520632752748,0.03210406545661211,-0.08752136277415712,-0.04157749162799691,0
33.0,2,0.13207827734768177,0.35935724680080333,9.724478583809107,-0.03238995582353134,0.020505717877994073,-0.09413378554392626,1
33.1,1,0.18531443614539422,-0.20013304421795952,10.018480851091345,0.06854192574735474,-0.022133756336633337,0.009877425038634596,0
33.1,2,0.1405255540278512,-0.11606587424879658,9.521647404303904,0.09606443127664616,-0.048368177723010664,-0.05696134049754084,1
33.2,1,0.07352699859245293,-0.17541838997709935,9.522409883746855,0.028548023973179733,0.017966429231597438,-0.06355844961161121,0
33.2,2,0.1820097318615771,-0.11439359790299992,9.62742362297151,0.0348703616088343,-0.025232637497225974,-0.08572711264819728,1
33.3,1,0.026845401596949883,-0.10333494060553075,9.605466501571984,-0.03948702036687871,-0.008407734144908422,-0.061163727102844984,0
33.3,2,-0.06057377518455616,0.0056439941165774,9.946021062486913,0.012478793988089544,0.053176528736466847,0.009971800606753345,1
33.4,1,-0.23711919946958174,-0.1002543070207715,9.854016766641571,-0.03433822188305786,0.09024680683480268,-0.08330991610347491,0
33.4,2,-0.06691120142018836,0.09820839538153586,9.958612891775228,-0.018565824118795985,-0.1590856900535224,0.05165969032477662,1
33.5,1,-0.1830256392029224,0.017330143881443192,9.80458595872197,0.04104511781069273,-0.006376914402132653,0.014560888079812621,0
33.5,2,0.07338714589230245,0.06814547099544653,9.608529093534703,-0.07211755115782846,0.041728873263386035,-0.029390104709125033,1
33.6,1,0.08116360059092666,-0.3454733805802047,9.796770152454158,-0.07235182042398801,0.02075131937724506,0.032667751659188636,0
33.6,2,-0.13401202004183752,0.22451997378639593,9.606924779728974,-0.0675575589362013,0.016470048863876926,0.043220310005691494,1
33.7,1,-0.3369550984082528,0.05414342047263258,9.52424554370075,0.026116606748529676,0.012536839768122199,-0.005541266599023058,0
33.7,2,0.08797053779889193,-0.1362812238456332,9.775232577506639,-0.009423273366602779,-0.02754193213940805,0.03489900646432364,1
33.8,1,0.11191381109753035,-0.4952170084178622,10.177877503124126,-0.08211329871133329,-0.04179618231009102,-0.0476051960452174,0
33.8,2,0.3118138088815563,-0.1727861978865972,10.135068354792761,0.0002974990395977242,-0.0297681799890299,-0.002992338499896433,1
33.9,1,-0.342313042204232,-0.26343693977867677,9.534067687602162,0.03273158623336874,-0.01741082834272506,0.003005683863815922,0
33.9,2,-0.3938374770994309,0.004480907978949352,9.865039601288272,0.028705655035877166,0.07120083408530274,-0.05924015510066077,1
34.0,1,-0.13345217419527763,-0.19480917744162735,10.150834650164368,0.11774071357064951,0.07938916541861783,0.0584471274471009,0
34.0,2,-0.2834344316374122,-0.39979187280196055,9.951493704437826,0.03366128204391844,0.04738535696407786,-0.0006347203194590747,1
34.1,1,-0.0014247362530785412,0.1676777160998755,9.723618728774671,0.11754539725389945,-0.05155344755999236,-0.0995634651826024,0
34.1,2,-0.20060537380509383,-0.06821587946294702,9.812928312529575,0.024180750438788166,-0.06159392020560015,0.03510091007747365,1
34.2,1,-0.39289149622626707,0.054452370405471975,9.962606318255688,0.10003651179831213,-0.032094144014456386,0.045750625940180895,0
34.2,2,0.028227769484403493,0.2947113823960817,9.773980873005465,-0.020595619814746294,0.014341580995460136,0.01523162556664812,1
34.3,1,-0.248607016290165,-0.043418891281639393,9.869870968628463,0.02968205591155439,-0.026751966283634854,0.04227390738392191,0
34.3,2,-0.06212697833208514,0.35815822559762894,10.08059913902201,-0.024764316395766234,-0.03938651772036946,-0.054311955400925975,1
34.4,1,0.05314653069370343,0.0787627026201407,9.927869573045754,-0.017131652251798937,-0.014530475209521497,-0.0016313096382350374,0
34.4,2,-0.020820010043432587,-0.008236292531070317,9.9455357544962,-0.012216987176628377,0.02804012474186295,0.03547996759594273,1
34.5,1,0.001366620884095255,-0.06737697590565668,10.213889696486206,0.007988359578237974,-0.028499398406144766,-0.052136950593298294,0
34.5,2,-0.07686906514382136,-0.22127369659811633,9.993016700532579,-0.01257691198558886,0.02773910000343473,0.0039929374006129875,1
34.6,1,0.19135345272092372,-0.017314948443419378,10.011020589399001,0.06713606368862568,-0.020427976544458295,-0.04205089812592576,0
34.6,2,0.14700907592728038,0.04929656825897843,9.45205469211206,-0.04064483989223545,0.04705704110332178,-0.02792614647901911,1
34.7,1,0.13082404477651638,-0.452458402050016,9.987799213238231,-0.029984533735116954,-0.04949458007417564,0.046044682952898035,0
34.7,2,0.0883283181676222,-0.16086147971703024,9.744456594777,-0.028458402358462694,0.04662959509583039,0.03932882972860821,1
34.8,1,-0.1418140802638439,-0.01842384863660875,9.635384646069808,0.0007570591066380592,-0.014060827698772115,-0.021382073323708388,0
34.8,2,-0.03623530569649072,-0.1223534303289473,10.076947010557891,-0.03634922250429477,0.03463693593870752,-0.041308394870270784,1
34.9,1,0.050543906249707615,0.3996921910610159,9.959513588285157,-0.08203106041358484,0.0431867681746142,0.1098700582854362,0
34.9,2,0.13245951358118252,0.04269751337665964,9.755420541968416,0.018508827233930516,0.03321981486616794,-0.1094946958556188,1
35.0,1,-0.20680099357048143,-0.12141127693854528,9.572218969374488,-0.08070653925471935,0.07879916773557077,0.027483798709069848,0
35.0,2,0.31041689729846933,0.47950851769530306,9.692185816041263,-0.04752809246281536,0.017845641577455076,-0.10641617908043832,1
35.1,1,0.10787013086572272,-0.004947309777489565,9.619904121796647,0.008700626584409172,-0.05265440282659439,-0.06263743001467863,0
35.1,2,-0.09934218845179822,0.3293392910777763,9.586269035648897,-0.047022543838738794,0.055080774899524135,0.05755400388799409,1
35.2,1,0.23885240899436117,-0.13978507390553183,9.524123489971707,0.003491581719083558,-0.07067352221595229,0.008981868820592206,0
35.2,2,0.18654462866827812,0.2205926235783979,9.960524840545407,0.104071409937812,0.03872730269645613,0.01922337600593275,1
35.3,1,-0.3357441120017774,0.4367142694856922,9.965543234858973,0.03999362845769737,0.0756034153506273,-0.0663731698805393,0
35.3,2,0.135553475321087,0.20158495656728379,9.540153954349535,0.04661573333308491,-0.0016334883207103506,0.05443191361094668,1
35.4,1,0.1111161782030775,-0.1004516405911225,9.904441520775492,-0.016880483119854458,-0.060871726042817965,0.0005521472051255381,0
35.4,2,-0.1648897621397216,-0.35363323163414573,9.791257678666117,-0.036466861560367186,0.06235657087372777,-0.06061082370772586,1
35.5,1,-0.1311771556801062,0.163230248386555,9.609268571923566,-0.012326678537136336,-0.051727265860340946,-0.05308998174447338,0
35.5,2,-0.19771670737604952,-0.0107519497598837,9.680857677505236,-0.052948873883591444,-0.07517384624488005,0.059270097924853306,1
35.6,2,0.18137052959633845,-0.005683312825930896,9.440166728570901,-0.06796164690725925,0.0008975544808891418,-0.0035962666959451087,1
35.7,2,-0.07794927260642934,-0.2288837583397832,9.710546351307297,-0.0896496696511018,0.005541411748576571,-0.04918957996778797,1
35.8,2,-0.21673251500699495,0.160474313913293,9.869600721403284,-0.018701805361439647,-0.12432338920728694,0.022370041265641884,1
35.9,2,-0.2765186162352272,-0.01339900890548109,9.790899821081439,-0.10878992773974061,0.01742898347178127,0.014688293969890376,1
36.0,2,-0.05828824946788236,0.21157784736757126,9.438694940055331,-0.0013139060479577195,-0.012719509129205657,0.014806959931605296,1
36.1,2,-0.06185133438863678,-0.06319132108635647,9.515843988136254,-0.01610139698777938,-0.046155470495589664,0.020789411503981572,1
36.2,2,0.02741165739220478,-0.016459377004083908,10.049894062314005,-0.022466065053239188,-0.017603657445834652,-0.029183991656771425,1
36.3,2,0.14448183547144047,0.050231761303222766,9.687375554008854,0.016935216711643126,-0.009394109536107137,0.04466804081292822,1
36.3,3,14.87545708557504,0.40376533334661735,10.023531625322311,0.029539288301893014,0.06030534771079199,0.055803067301771994,0
36.4,2,0.0031075376039118308,-0.31827923052734275,9.747199837398211,0.006484117004622013,0.005004174197786956,0.036080753561691374,1
36.4,3,-0.0997188036589961,-0.119792684620993,9.761188877972824,-0.03945957133820569,0.02266151723954952,0.0006042904069083104,0
36.5,2,0.04848013127351394,-0.10958173327860615,10.029213841245305,-0.015970027025596772,0.10093320442923524,0.019009986439449206,1
36.5,3,-0.0852826730099,0.11326868319095312,9.941929432908427,0.019629411994082763,0.03488053052729991,-0.004519683121562399,0
36.6,2,-0.3502716836848594,-0.2993866422795454,9.67067924221719,-0.02388893109001156,0.042881088474969714,0.03543256338324013,1
36.6,3,0.2917383145245812,-0.04189655658919116,9.75374222802958,-0.008196021440070058,-0.030777845684093065,-0.03722828628676702,0
36.7,2,0.03515468470371159,-0.008063820222815397,9.555295380190586,0.010115985517216026,0.002420790975685245,0.006827472836979417,1
36.7,3,0.002656900407355248,-0.06191931008365721,9.435644074874945,-0.016628066938117105,0.005005177176906073,0.009359026890120475,0
36.8,2,-0.02214333106371861,0.1936777702011179,9.449998085247067,-0.016147388494043728,0.04114003561573874,0.05536877519939881,1
36.8,3,-0.013948998203056935,0.1423065539454449,10.027875386966699,0.01119792913961655,0.026405952344624922,-0.014175635358041661,0
36.9,2,-0.08569124910500492,-0.1807853965312642,9.9710422608029,-0.0139134774021531,0.06299430259845497,0.09044851533881493,1
36.9,3,0.07014847494779264,0.14629179453520735,9.753284943766642,-0.01762890929402111,-0.0386729096648539,-0.04917600387263882,0
37.0,2,-0.2620985307212441,-0.5846178297766113,9.593466375102997,0.06262235009885914,0.05844027348035366,-0.041531312126408454,1
37.0,3,0.0289974153296656,-0.11409652587458081,10.02723828337495,-0.024538898987354025,-0.01429012360028888,0.0030213131131431713,0
37.1,2,0.21831216858679545,0.06959063110105873,9.785324295838542,0.07562586085367304,-0.010432282335045711,-0.011100472761808818,1
37.1,3,0.23063471797877577,0.14791898382542387,9.700192059139141,-0.09407051951760409,-0.003361328651505901,-0.07956932844862913,0
37.2,2,-0.05044389580812847,0.07677532203941595,9.850161309357391,0.048371655300012466,-0.04423867540781577,-0.05408486323412595,1
37.2,3,-0.36021641371734026,-0.24085139736111968,9.59095266422508,0.030262772788840944,0.11292096700396377,0.03182792556064137,0
37.3,2,-0.0339467179702407,0.2017730882774819,9.94767147118723,-0.08157110095664116,-0.034451009374138086,0.10131222097676096,1
37.3,3,-0.16884219073923726,-0.05662668917255893,10.125792166493312,-0.04109834875850909,0.06047321626129727,-0.016617503692182928,0
37.4,2,-0.37834457216413125,-0.1375520640557652,9.77926547866048,0.11837906533393783,-0.013070469786950782,-0.002369611664460347,1
37.4,3,0.03492031409392666,-0.0777781759054241,9.733818452052338,-0.03702157171700016,0.019185773133658754,0.013731732168297206,0
37.5,2,-0.06905591161513734,0.2631315236020912,9.787763649056329,0.06802912665908688,0.01883936628808505,0.003911989629924004,1
37.5,3,-0.04235822994698745,0.03649408358373377,9.647052168974492,0.03653515614203448,0.007181204247645698,0.026468975269602076,0
37.6,2,-0.1306845623356053,-0.39708981781003766,9.851322317370373,0.07328720010406435,-0.02579886920744512,0.036234297809972636,1
37.6,3,0.43663185061377724,-0.1878085313749457,10.10595936925579,0.02537286040987838,-0.056135862018261456,-0.09590169200276073,0
37.7,2,-0.05795509534601278,-0.3907526077008037,9.89537983038159,-0.03484248190399663,-0.005622328597411072,-0.011306933881905483,1
37.7,3,-0.06417652392573242,-0.28432978111159635,9.790361968527218,-0.09910143222642787,0.009850830913093958,0.0007226437654894141,0
37.8,2,-0.053838326280885765,0.6081620820332151,9.79750532239894,-0.003155223147470024,0.09740094671915507,0.06486675087416598,1
37.8,3,0.19589616688320377,0.10644629587572232,9.879637018886283,-0.03232335620765097,-0.0776767624761639,0.10736330543452804,0
37.9,2,0.08955624047132411,0.08539659313164959,10.141557439091581,0.008848925167928222,0.00896419420165407,0.028573040064170448,1
37.9,3,0.3902054032101522,-0.2006617770536568,10.103845108840106,0.07325087099543107,0.019614281775616263,0.018214087485949246,0
38.0,2,-0.2148034007909878,0.05631624625291907,10.101096939566263,-0.01360249098752733,-0.006142338762294222,0.01924515380470586,1
38.0,3,0.052157722189521666,-0.06434563774618346,9.88262728673576,-0.05286362861032754,0.028047078581810672,-0.057700396381714904,0
38.1,2,0.23053784974065286,0.18480183382988624,9.731886398508289,0.06525078637313832,0.05246347256078655,-0.013205886479431751,1
38.1,3,-0.08078387719116611,0.13834650302567048,9.821185598925885,-0.02704176105172242,-0.015974125410101188,-0.06324434162512353,0
38.2,2,0.15043890253826603,0.2100823560919353,9.559269493722558,-0.046773937511783006,-0.02445285806197725,0.049455138656837726,1
38.2,3,-0.10690334368856391,-0.00808647535310184,9.560310310039574,-0.10731832120472642,0.011538415131106533,0.04816878741211355,0
38.3,2,0.026840670990873883,0.08453145510388699,10.101037466135322,-0.001397400479570564,-0.06288749238188851,0.1503264684132898,1
38.3,3,-0.14721882641589257,0.4619440845634164,10.010296400149644,-0.045688449466331826,0.04051773587613879,0.05692592100533335,0
38.4,2,0.31202750967512655,-0.20223551160608136,9.669638420365274,-0.03511240686812584,0.04675090665034134,0.06510012510794026,1
38.4,3,-0.007542615289229979,0.0921719667704335,10.068144862807154,-0.01352651364329467,-0.04286224111106291,-0.012970614795287026,0
38.5,2,0.4583191795534702,0.2137388906772992,9.70249756595754,-0.03725743840672382,0.04313841890510012,-0.038218850933680576,1
38.5,3,-0.27967597248518855,0.11016198863643192,9.875103363841642,-0.02399118925988561,0.0017385375129972084,0.04286428650122496,0
38.6,2,-0.1458495238024439,0.1781784971037406,10.037476639706618,0.0594548561138532,0.021835067961410114,-0.05118281717895151,1
38.6,3,0.16610555279575967,0.12586433715386638,10.052438957856078,-0.003089221068150563,-0.06666605997775521,0.018725421856767815,0
38.7,2,0.11606696132559158,0.3456070081667723,9.84626576884702,-0.0033917725898401432,0.06110119913534426,0.05460792318838949,1
38.7,3,-0.015911715505266127,-0.2806257846588516,10.263918654312397,-0.009773914744238318,-0.09022410180691112,-0.025467439821368777,0
38.8,2,-0.07646047015701443,0.03606845728312156,9.632966283654664,0.028438356712718743,0.017757432300931453,0.005030335740903641,1
38.8,3,-0.3227167538212339,0.17623402189772747,9.623706192831834,-0.02672358613521733,0.017093383260932227,0.01711593279845097,0
38.9,2,-0.15911895498048628,0.2788191902849392,10.100170553546818,0.015630928878903237,-0.017826774448427587,-0.12940948455640386,1
38.9,3,0.07646041088136085,-0.1867659704747346,9.964060380443167,-0.03426833892703392,-0.02030235012766003,0.04344030582250113,0
39.0,2,0.5062898341509458,-0.2482762527582577,9.92481047963456,0.03883508067208705,0.0018449584406211074,0.041377940936498346,1
39.0,3,-0.05214794312399157,0.27332343435102113,9.516468348713031,-0.054049680039083225,-0.0563435698372157,0.04518484562800427,0
39.1,2,0.05064283328578112,-0.2695466350899951,9.583825658289427,0.06699394929995497,-0.009165781510515466,-0.021766162721389197,1
39.1,3,-0.10841634273541448,-0.43327904116821747,9.936718264921991,-0.009405666771438248,-0.09938342841840835,-0.05026524464606044,0
39.2,2,0.1899081135112718,0.19581689651832251,9.746162270777734,0.03806177673067282,0.03906125678867502,-0.03742266414798978,1
39.2,3,-0.13689789539000644,-0.07217807704413319,9.843800507577932,0.00010683122465075471,0.0631825326221364,0.006758311567018987,0
39.3,2,-0.08716641134348288,0.3909704255133469,9.736855944656789,-0.07303690047027672,-0.015457843116140697,-0.0423763073536526,1
39.3,3,-0.015749222166917883,0.20919321661467724,9.925805843182818,-0.05091461066971641,-0.004758549074126646,0.07635493140781968,0
39.4,2,0.31566935534972823,0.20449994954936124,9.81387514018403,0.002681846733984984,-0.12149597875909607,0.028594692366529506,1
39.4,3,0.11852335113058309,-0.044383888434725224,9.576580053904223,-0.0877092778542085,0.1119226248012131,0.03501225185185732,0
39.5,2,0.17188354823111107,-0.10585499755143973,9.755294611063674,0.05464129484425693,0.07404911800053592,-0.0309550846204123,1
39.5,3,0.22373827264829377,0.1905835879567931,9.704987105495094,-0.021099391202257654,0.0061416110319515715,0.02701591056323986,0
39.6,2,-0.008009991293840326,-0.12614204169195936,9.65402609819894,-0.014864013054979655,0.026136671766101873,-0.009667596377486968,1
39.6,3,-0.10949575354596518,-0.013712725174350439,10.381086557346691,0.015004599292884266,-0.05981074057716401,-0.021544939694412547,0
39.7,2,-0.25506169344292545,-0.4357651959681144,9.89611136992969,-0.021210079430934586,0.06468379495751324,0.02498150194149874,1
39.7,3,0.1736262441408458,0.08453334210303094,9.84314796143064,-0.006822122330467574,0.11822470976289978,-0.05536818877259925,0
39.8,2,-0.14476211317849305,0.22572339951373666,9.841973652857558,0.13081400117767134,-0.024095351493138448,-0.035282642291827634,1
39.8,3,0.21614254113799777,0.016448364877474655,9.918962419444565,0.06157304426021967,-0.03264967442922007,-0.035549945415799276,0
39.9,2,-0.09619747872649778,-0.44952183369908466,10.027591656717155,-0.049088999204417255,-0.032146138875478104,0.08857366558254395,1
39.9,3,-0.15559789378369324,-0.2507057855387735,10.041211563442914,0.06704174925664338,0.027742577602219,0.03511475208500127,0
40.0,2,-0.07919438869598035,-0.12865099966065335,9.625576137695193,-0.07784300591402837,-0.060558313017092226,-0.09303665106698661,1
40.0,3,0.28116939262234997,0.3543375412533752,9.811488141657588,0.019292460329006063,0.03317180431147413,-0.07307530911205228,0
40.1,2,0.07830723967706155,0.10489605307152428,10.10965517573238,0.0375052040387582,0.037830751793182356,0.003873569710547939,1
40.1,3,-0.20946922168478066,-0.1928143608176565,9.816919165623608,-0.02776782005611604,-0.016081649597243692,-0.04644440169190417,0
40.2,2,0.15489161051634465,0.006652635072140262,10.054747623107277,0.07833079441075669,0.01045881984428319,-0.030029121676486095,1
40.2,3,0.16567246615292322,0.046689849823395024,9.713070905811918,-0.03161152092315454,0.09562384522197794,0.04862450951030499,1
40.3,2,0.024956768049726845,-0.09131271143434415,9.610928991835301,-0.041756329430299576,-0.0033090898976425686,0.0002312834980455528,1
40.3,3,0.09895025637777952,-0.30828227528918295,9.57469105712058,-0.008877684804058374,-0.004190746638744688,0.06840016513402024,1
40.4,2,-0.21522356132797432,-0.039765801561207244,10.040747999720695,-0.0020353173505657444,-0.013825718410863034,0.04416748196360972,1
40.4,3,0.16388299795507547,0.06565771432523218,9.607613649930338,-0.007978535424413355,0.00020523194237028676,-0.04426912909664137,1
40.5,2,0.04819089082225583,-0.03927834813756583,9.756228850084984,-0.03747087750211394,-0.041766006976155165,0.05041593127826627,1
40.5,3,0.14875768722835755,0.2665734633819195,9.925525944544017,0.07883693797205014,0.012481464570571144,0.05444193773409098,1
40.6,2,-0.48132847075753804,0.03621679243593199,9.898402578058452,-0.039115874083109264,-0.043537757627937254,-0.045554633409769896,1
40.6,3,0.06789035763578877,-0.1558780772108089,9.953235209579185,0.044423121277742554,0.12179658614180006,0.040887084030236914,1
40.7,2,0.12527328891075723,0.18854999094491623,9.709830523313062,-0.08726807998877145,-0.026296207203865996,-0.03332200100123275,1
40.7,3,-0.09694221004685112,-0.11550121716251788,9.55159117308665,-0.10801241533020133,0.039438069319497907,-0.01897715944077753,1
40.8,2,0.3310895119823607,-0.03288958745693469,9.795542053156277,-0.02157222422608141,0.06188159815460551,0.0318575168665926,1
40.8,3,-0.02378298639361156,-0.0655192283247531,9.952945489887263,0.05906792885041569,0.003911973916245511,0.006041551452770814,1
40.9,2,0.23246348642028503,-0.16239053254642657,9.944018002886448,-6.264059987706775e-06,0.025727839590163226,-0.1063352038575619,1
40.9,3,-0.05324977627431765,-0.13049080353026607,10.111274504445863,0.04912064026141728,-0.004238803076322985,-0.008143389564618886,1
41.0,2,-0.2566116479873516,-0.11844946576478131,9.945641031286208,-0.05669091753153484,0.032458548675433685,-0.02485377153326754,1
41.0,3,-0.2092237756683756,0.02969912576720196,9.849434303111735,-0.06602648281356416,-0.012220111574107153,-0.09465869857114949,1
41.1,2,-0.09646879440751384,-0.1190638713801985,9.795018445438592,0.016170704450140284,0.05740483913822916,-0.12322056454627993,1
41.1,3,-0.03840902819195161,0.06385065191484529,9.889911771558374,-0.024456902136145393,-0.03546064180683811,0.013375467573898403,1
41.2,2,0.026910644459264943,-0.306493753646817,9.881809440887707,0.032844889921511924,0.08757699274841801,-0.0075417083443883376,1
41.2,3,0.36593961834579536,0.3392999780241845,9.662697176020785,0.054822254232958584,0.028284422247328418,0.021190164057838107,1
41.3,2,-0.06412471317657534,-0.0054231463233118254,10.011417766719209,0.09871610334893467,-0.09988716991939559,-0.07680513040018433,1
41.3,3,-0.032317786834452356,0.04830620567795989,10.001565073307741,-0.013988600019297052,-0.06468806923287773,0.06749498286239677,1
41.4,2,0.23591531410961686,-0.12091020437452323,9.607235361698386,-0.003913954841884337,-0.009421551326842748,0.03296174129458206,1
41.4,3,-0.31274419683447385,-0.13134488513561712,9.734764243638157,0.04727220212035143,0.09598168795502537,0.012985444912549682,1
41.5,2,0.2670202856210643,0.10747634296651959,9.598509095654698,-0.06288283884218299,-0.017889359951385606,-0.012689698785774027,1
41.5,3,0.13390902693042844,0.14121376673676214,10.057360896078466,0.011530606603684644,-0.009800588706139292,0.003464129653685136,1
41.6,2,-0.5378092794962414,-0.017396215672086355,9.894417810687857,0.06761591605380785,-0.059705996950494555,-0.016436580959868042,1
41.6,3,0.21163023812912854,-0.1665063075830603,9.601716382269233,-0.011890095859270401,-0.01413878540197022,0.057567056360510266,1
41.7,2,0.13031145638635697,0.06053076508157898,9.461317424014494,-0.04889725560450985,0.01390740924582627,-0.022409197084017993,1
41.7,3,-0.27601866751316056,0.1400566904417491,9.929138491207354,0.031117374756063854,-0.02992815035350653,0.07265995266999131,1
41.8,2,-0.1856982704771838,-0.18080047025223547,9.710429907011072,0.02994387253376953,0.03157999102197555,0.06061700965931635,1
41.8,3,0.41962530278246835,-0.31048403153218257,9.912737706603167,0.03724483089852445,0.010657836899502164,-0.14606959250628412,1
41.9,2,0.1642130192769913,-0.10607373768064579,10.062047575836395,0.050345879946544596,0.04501871432159845,0.04503967237031503,1
41.9,3,0.5772618667562308,0.08477628417983929,9.652106971174883,0.051481751645997643,-0.021657221015662267,-0.05762823274502086,1
42.0,2,-0.09005771339994094,0.2448576526566033,9.701216169549642,-0.0383337263218223,0.07717397592141759,-0.046034151735012484,1
42.0,3,-0.13208447624621064,-0.1213736359055891,9.672141066182917,-0.06578408489948658,0.049804327446840185,0.06382166441600164,1
42.1,2,0.1787704176930749,0.1478126896589484,9.858938062747516,0.010520031023586097,0.06660129633837325,-0.07148388899461894,1
42.1,3,0.11865825061205895,0.05091934681952329,9.971077657928348,0.04957927251927871,-0.019021111073903217,0.013889385708396927,1
42.2,2,0.30369315480257264,0.2865549489307936,9.489164229964164,0.00463411639161177,-0.016878452888215597,-0.027547393155794214,1
42.2,3,-0.4331873567157718,-0.3076726357975771,9.782670303235191,-0.015443795948379555,-0.004288028660809836,-0.021920487140600083,1
42.3,2,-0.06049595220308336,-0.13266077752032324,9.88865522255937,0.022954719265647586,-0.11713919418882293,0.005494683536186803,1
42.3,3,0.12902235680572663,-0.16956954207491215,10.28614612125832,-0.04274079937556938,-0.037603680073239554,-0.009697209699554392,1
42.4,2,-0.31438116469184174,-0.28118533403123064,10.03129421586971,0.09782573773470729,0.016531457813154436,0.02213443689610265,1
42.4,3,-0.021363920807054848,0.20567941845380294,10.174740587650353,0.048596346217682385,-0.005429337358808368,0.10263980895224496,1
42.5,2,-0.03195551155352287,-0.20564620646280884,9.643770789729556,0.09531005346842003,0.04393993319592551,-0.07358165304724144,1
42.5,3,-0.22875836339670252,-0.058840409453506506,9.616623673831215,-0.010144858055703138,0.018812610385473785,-0.0169661546488445,1
42.6,2,0.3356648574779752,-0.27318773898843307,10.184312959961192,0.14951268006113436,-0.035643671214737625,0.07657190650887508,1
42.6,3,-0.2695582971717015,0.23495887002757573,9.866575729557681,0.023157257894510296,-0.06302024325614294,0.02459306088493759,1
42.7,2,0.1932393963399128,-0.034911361512410984,9.804401518189392,0.07705842241117691,0.023970619401183463,0.03862179163563676,1
42.7,3,0.27868396233855813,-0.07775636051501786,9.528346678701984,0.051352107943697684,0.05111471875563807,-0.04996278688898148,1
42.8,2,0.14068252393418287,-0.00549901528411995,9.862835823174862,0.04675265269758652,-0.0230243578433311,0.026006644325306912,1
42.8,3,0.021853985838095585,0.06919209299653871,9.826325190372533,-0.06060172837032679,-0.0072077628355377635,-0.15863793255296746,1
42.9,2,0.0049607488258093186,0.02797376621466583,9.89832049223726,-0.00013881425267803915,-0.018469191289734364,-0.008602818305601867,1
42.9,3,-15.009274410728455,-0.14327278379033387,9.476059843764679,0.04945693051346239,0.007562090776651382,0.05699502898361428,1
43.0,2,-0.2743599779130648,0.13334411208864602,9.444030160196446,0.03689503221075629,-0.14447875220618728,0.04077626797256616,1
43.0,3,-0.105722869503172,-0.13042057607767182,10.313721950682764,0.030152203230355223,0.06830286951854717,0.025105253868057897,1
43.1,2,-0.0016590000825957318,0.002991498752564095,9.333096069566116,-0.055921347726742156,-0.005153514344770616,-0.06362087746351552,1
43.1,3,0.13528441708996428,0.02137032250400514,9.986893243471751,0.04629796393709527,-0.10144695223394795,0.031802144655184765,1
43.2,2,-0.22507898254257533,0.0968848393070094,9.945057474398753,0.008333306700858282,0.024779959515941412,0.015835571188460386,1
43.2,3,-0.20842497494913692,-0.27802067232727773,9.570623612905715,-0.03530210378912958,-0.031564593626788255,0.0023432790319290165,1
43.3,2,0.2460203557686167,-0.0050204475804913355,9.763449757078217,-0.019457737150702148,0.02859158640411452,-0.07919141034989152,1
43.3,3,-0.10519697319595774,0.2162475968578218,9.68193649673194,-0.08720170452014137,0.06257981505217979,-0.04383874063095502,1
43.4,2,-0.18628649247054146,-0.04695413748300352,9.871673862639602,0.0634747629197757,-0.0076621985145077405,-0.052354871151782736,1
43.4,3,0.12372281794749854,0.21104439724166932,9.960425897564791,0.018351450099977837,0.020976187707930714,-0.07714781972197039,1
43.5,2,0.3612500990420294,0.3713709977102297,9.549666684200453,-0.0007707661620076915,-0.0033266675262072056,0.05417002413654202,1
43.5,3,0.16480349719958456,-0.10282661428933437,9.650292126022737,0.05204808322388928,0.0320878061742173,-0.09286032467518016,1
43.6,2,0.10292309573022496,0.15026769676611385,9.827405043727932,-0.012781945479510832,0.0414207429559888,-0.0025780008503521845,1
43.6,3,0.12256658146026045,-0.06683478852235925,9.920990432572134,-0.11393356604475154,0.07526012080200843,-0.011917274878374549,1
43.7,2,0.00999789815729582,-0.1346045454471136,9.958581126345475,-0.009064975525493268,0.005739513225544444,0.038680651361315536,1
43.7,3,0.19230899901033005,-0.14449273993633951,9.8463019007501,0.04292601040690763,-0.0320357449588839,0.08738113448105533,1
43.8,2,0.11481567660161096,-0.016086561184576225,9.753300028170488,0.04432032626391064,0.03904955576181616,-0.014816355400847026,1
43.8,3,-0.33072358547414804,0.18862319087658724,9.722431687495934,-0.05797733535316964,0.10082954874946069,-0.10269742372026425,1
43.9,2,0.20059660028137785,-0.21355506279573527,9.56920118200182,-0.05049565072287551,-0.031160795503218527,0.06202258307732697,1
43.9,3,-0.15382469252971767,0.04222741693322568,9.668360356768552,0.0330966726770309,-0.11565483509581674,0.09296777782913149,1
44.0,2,0.08955256828439226,-0.2537735998420391,9.653902466848194,0.0424256160365602,0.052316889075618704,0.01983238702173693,1
44.0,3,0.1144184147579766,0.004332682843334177,9.688720312994802,0.06541665210886535,-0.09642527245076031,-0.020533409129116637,1
44.1,2,0.04960111509182749,0.15954147192614104,9.714414505777999,-0.01821014556570417,0.053289827846728026,0.03174445404160879,1
44.1,3,-0.16361073041269578,-0.1539748087721441,9.908195440210829,0.016285893002297106,0.02899628339405216,0.07713157661469655,1
44.2,2,0.04308337258931779,-0.16946961204569622,9.828480790288321,0.08472791512228747,-0.06750452191178351,-0.03624379988354869,1
44.2,3,-0.09160754198997267,-0.03586078159724396,9.5636648104148,-0.021759027742041095,-0.0008733651153886705,-0.0025885662138268686,1
44.3,2,-0.19346586162616775,0.058387240791114806,9.949696340456589,0.004085127930605775,-0.06825359428159969,-0.028918066726574987,1
44.3,3,-0.2005972997647248,0.2088832875799585,10.129186474238733,0.0758428273176766,0.040333918862381316,0.10131957897176468,1
44.4,2,-0.034463807369926255,0.22985250628181506,10.076848565608614,-0.08518051305893184,0.029062482748378977,0.0347790676353999,1
44.4,3,0.3368755129195456,0.15488048984809577,9.999199434801858,0.020382513055051312,0.044191723149266476,0.021742545063218308,1
44.5,2,0.09705051724538313,-0.314794000195174,9.635046839324028,0.03727942970711526,-0.030614810603865374,-0.07677206116455801,1
44.5,3,0.06975705220105077,-0.24007936841066738,10.089301492795887,0.04232756362963358,0.06198864761678233,0.03637519491551067,1
44.6,2,-0.062200270857729445,-0.1613646640202138,10.107165741579125,0.012579385733138293,-0.03684816236707388,-0.015756563425721303,1
44.6,3,0.19544365647475226,-0.2908984232300996,9.597415546098798,0.028894110016511678,-0.006215771998132974,-0.023647030824966973,1
44.7,2,-0.22255375214338424,-0.007753756169321133,9.763430907100178,0.01735135984262196,-0.015741353117746337,-0.02260687780682667,1
44.7,3,0.0005767970688118976,0.20508556712903514,9.748307754062271,0.056463493475798446,-0.06657415569835688,0.012359953668997318,1
44.8,2,0.1884288013870968,-0.12019080971609633,9.974539254041119,-0.005356574177315841,0.04289984427677321,0.007932604665038985,1
44.8,3,-0.12799579523934976,0.10406547854940347,10.07388505204715,-0.03507748012671577,-0.03072443699975577,-0.038417392854175086,1
44.9,2,0.15908241728187422,-0.16188898501776422,10.069408973700611,0.07414671084512847,0.08066487911580726,0.07692033909454311,1
44.9,3,0.18440407797249989,-0.22570978781701997,9.32231186905191,0.008746073124215237,0.08838654905555744,0.09693483001085379,1
45.0,2,-0.24451271820599724,-0.10687094197268475,9.784060721013997,-0.005585304096398362,-0.0035416532017078146,-0.00047649522990937866,1
45.0,3,-0.23126031617073284,0.36878764829838345,9.94580954316592,-0.06536031219732523,0.02490239391864832,0.05847675428105743,1
45.1,2,0.19110140700620146,-0.02035114492176731,9.980668984923401,-0.007234594419306701,0.04432796748505771,0.053869940658238594,0
45.1,3,-0.07232652187225884,0.41902960200606315,9.887984514054942,0.029816690461792618,-0.0244865815732107,0.018346489270723527,0
45.2,2,14.970608225717056,-0.05814170982934125,9.900604124474171,-0.04278200901957885,0.04229353775396501,0.04074890402383773,0
45.2,3,15.095667884951794,0.0611008040070732,9.508975826945216,0.041140859964206994,0.0033763909653368295,-0.07116965821847511,0
45.3,2,0.09900628051715497,0.31213475830840354,9.680641490224502,-0.046997409236878826,-0.017283911634269854,0.02294050213339023,0
45.3,3,-0.17896864256132783,-0.1350890521413177,9.75617957547614,-0.0019733258108968785,0.04800809687306947,0.065903696407058,0
45.4,2,0.06638840988178826,0.22365266312933887,9.961843816220934,-0.014344964087381666,-0.008900846921965027,-0.08225193616044563,0
45.4,3,-0.16415054636191123,-0.08279574479769179,9.755498241905412,0.08672126385161621,-0.01944853127562643,0.01711316566209112,0
45.5,2,0.054898579037204236,-0.027703425104553033,9.907709365274796,0.010986379895775722,0.05653033738235336,0.03685408398469716,0
45.5,3,0.03195080688515566,-0.1713844778434198,9.816062975217163,-0.031520156898796434,-0.0016088335251690468,-0.0846184639181276,0
45.6,2,-0.08189197559267541,0.22001917185202116,9.700181098224226,-0.02120104313485762,0.04698329746200585,-0.05794678203713484,0
45.6,3,-0.25606402210322576,-0.06071904845226944,9.77889497341641,-0.1169549322878289,-0.018563386758405742,0.0523012838141598,0
45.7,2,0.06307311202369228,0.38628199924330464,9.490401106618974,0.05474484115309117,-0.036342039399793136,-0.027358401984596006,0
45.7,3,0.1785670208745601,-0.30475072047737917,9.54550829497714,-0.046218401599133194,0.04212409896280994,0.1066615254979118,0
45.8,2,-0.2462468920744997,0.16298829473502763,9.921109399579246,-0.03014511105675606,0.040421605306316145,-0.050191758459737106,0
45.8,3,0.12033669042699813,0.05061350514971252,9.825958880618945,0.05230774618114579,-0.011509635582380558,-0.040490799183448375,0
45.9,2,0.1476085259705555,0.40801550647761176,9.69974802364716,0.07908645864437483,-0.04086765124064495,-0.03419419612121809,0
45.9,3,-0.21309798113114012,-0.1109438914071111,9.355748148086219,-0.0172880806468713,0.009854443588349143,0.10942469371160668,0
46.0,2,-0.1995727062020475,0.1728781223946897,9.346576747164361,0.098309327631719,-0.04363211673661075,0.019980271855700168,0
46.0,3,-0.10604808774021784,-0.33506530600491446,9.259829803739931,-0.025168826770164077,-0.07247011081969244,-0.008608776199278958,0
46.1,2,0.07860585018838817,0.016034729003873323,9.96987169560824,0.024501577123697944,-0.029295237314280666,0.038534655436480894,0
46.1,3,-0.05874564829552073,0.3867894267986888,9.926034769965717,0.025609581421316197,-0.0031859579136837533,-0.035290346253753754,0
46.2,2,-0.42786064364979937,-0.032159424997339196,9.834614001436147,0.002053503625588699,-0.045898850630622545,0.06708964144144043,0
46.2,3,0.04919785374784173,-0.37340721950033967,9.990483850051254,0.0586464092188889,0.041838340476554985,-0.013301242412116394,0
46.3,2,-0.592484763626476,0.022555739591212154,10.045105423176606,0.09296493340897954,-0.006008945289447676,-0.004533341421503557,0
46.3,3,-0.17577271155457283,-0.2839497514802218,9.597721287632176,-0.059384385261109375,0.04163406229817132,0.05469907400481941,0
46.4,2,-0.16313334532644772,-0.036571994003778405,9.66166849397527,0.10494643383111164,0.055823320726863634,0.050249606533825625,0
46.4,3,-0.07359381317252149,-0.15532434712569132,9.912056185319729,-0.07558535768378727,0.06662674652009058,0.03295097644796998,0
46.5,2,-0.15591023860121334,-0.04767120577246514,10.005562258042577,-0.057759638331565846,-0.05624309013735081,0.018119205275311776,0
46.5,3,0.07685269400249267,-0.21283397117788938,9.613233024247704,0.009922135983659552,0.11103468698761154,0.06118435057559968,0
46.6,2,0.31380942409928525,0.30186520858057064,9.872128298387041,0.048287025464093136,0.058951765158669095,0.04378488865809619,0
46.6,3,0.370067758405234,-0.3665169756144293,9.801900957611995,0.09549393054098633,-0.01597118220332401,0.03794923435524022,0
46.7,2,0.2259241991313391,0.01778282657813928,9.693836236402287,0.08817719416394143,0.06037971542531789,-0.018288496407930566,0
46.7,3,-0.014407308199459762,0.2472350107841387,9.828740998730128,-0.030940517705493133,-0.005169165876550724,-0.03515541201973526,0
46.8,2,0.01303070780645432,0.16283005679683402,9.919392001697267,0.13280094645901214,0.013567124825066532,0.09009657663220826,0
46.8,3,0.31311166975941424,-0.00953814785569402,9.690890733286569,0.018771046550129677,-0.07201497168082142,-0.07583301540024324,0
46.9,2,0.3834793828344562,-0.2961488099406942,9.771526900743929,0.025100572702659064,0.02874424416194601,0.05990584802573458,0
46.9,3,-0.25246635373064025,0.49754896868691634,10.159104804664377,0.04430833897118319,-0.021742198150497494,0.058140272289545825,0
47.0,2,-0.14798905224649303,-0.24946977071663345,9.847295863925444,-0.039426113099509934,0.07054579568816914,0.0006339710689153284,0
47.0,3,0.45849455221723573,-0.07664074371108073,9.619941253164997,0.02669850769825993,-0.04283542386943041,0.0379222496574427,0
47.1,2,-0.039062116187355306,0.10487416911501862,9.78433771843424,-0.07095338993276935,0.010248898504592686,-0.005818301214635956,0
47.1,3,0.13187380488564923,0.17053170916212418,9.53761329509964,0.09094770523491554,-0.010112717005513569,-0.020227488226019264,0
47.2,2,-0.03512488575704739,0.18177537337354913,9.686725367932695,0.083969786211637,-0.037300516625451925,0.1636143920936025,0
47.2,3,-0.2562737075597786,-0.06695120611125105,9.822603930192185,-0.0207759642811648,0.03724064277977667,-0.021251202764369467,0
47.3,2,0.02206069034307008,-0.05989125720915959,9.410872348447565,0.03162345987689084,0.05474751945332279,-0.021919815060715987,0
47.3,3,0.43909240114284415,0.058143526729585795,9.525635059189952,0.08925736894516129,-0.05342977511725714,0.005280635749928139,0
47.4,2,0.33239039618480015,0.30558754035930663,9.667868221226799,0.02319244872343013,-0.0419531992131526,0.03368494051395573,0
47.4,3,-0.17265691147950524,-0.27899828110485847,10.111493357846998,0.060580446998527306,-0.015824233729497244,-0.04000535620922934,0
47.5,2,-0.29308630955368575,0.1776235117891274,9.92392157659746,0.02954635139884003,-0.0033869568167446034,-0.0918763546396382,0
47.5,3,-0.04956868648752876,-0.05562343292840277,9.876546796847236,0.06552753109142888,-0.11951158687089743,0.03796899365926443,0
47.6,2,0.1481178209532326,-0.07652497409232795,10.001966388352695,-0.04106395244281721,-0.013080400635476467,0.023798921864426906,0
47.6,3,-0.21462489613729785,0.037306845603703655,10.08641367867847,-0.04247554353135367,-0.11884521494963207,-0.12122306356023232,0
47.7,2,0.12229156993722937,-0.01898109971562055,9.835065045729598,0.0454249797775847,0.07016820413167375,0.03264539660849538,0
47.7,3,-0.3503026401266929,0.006265987814314736,9.558031828511933,-0.03610425163266888,0.005088304174203308,-0.004023305790924537,0
47.8,2,0.1634669431178839,0.24816493195054493,9.718736639321017,-0.009144594379759558,-0.004963038048729471,-0.06276328312504109,0
47.8,3,-0.02696767799926037,0.032200665670367855,9.648982262074155,-0.08474938725929852,0.060053857357637956,0.004094154751038439,0
47.9,2,0.3662968722237634,0.008455021400149112,9.733475792789845,0.04114011353889338,0.06416706061690232,0.008806999110972128,0
47.9,3,0.043106701785439065,-0.08391683852284297,9.45779950443384,0.019998346551212763,0.026453939298658913,-0.04132317546418071,0
48.0,2,-0.5346169820319868,0.14109124016642577,9.519704541737655,-0.05104462559699522,-0.04189565793426216,0.10124045297892999,0
48.0,3,0.041986577559414276,-0.23664865707835958,9.76166162768416,0.02305970382859197,-0.017087540409693968,-0.02837918662363242,0
48.1,2,-0.020119329689306797,-0.13864724895496527,9.942521589469878,0.017729898519758775,-0.0237385178554604,0.012329741226226994,0
48.1,3,-0.051040136115142444,0.005740062223436512,9.692976061642492,-0.01032704828783541,0.009985302711383691,0.04307325276780927,0
48.2,2,0.00525981749188203,0.2621845545769025,9.923681492147066,0.001777084159890619,0.013837764840734727,-0.0830627449349411,0
48.2,3,0.08787725391200704,-0.0548400842753719,9.724895385258254,-0.05840581653179586,-0.019466747568536672,0.014716919389673759,0
48.3,2,0.11676283575842641,0.10320799192809292,9.872795096183575,-0.033596651560586346,0.030290993847198383,-0.07635689651929557,0
48.3,3,-0.015602680271136407,-0.08059454850065095,10.058902786448899,-0.03177344174496992,0.05791466826597644,0.051251578817861826,0
48.4,2,-0.00688496157361459,0.12355486884379295,9.753811089226026,0.01375386873684776,-0.01866147785574796,0.0663587936167152,0
48.4,3,-0.03404553062177709,0.27222659405230787,10.173507548359233,-0.02387572646794141,-0.009362216529774063,-0.006765813466630613,0
48.4,4,14.96362849201428,-0.04703378470962161,9.703013095060943,0.07849250879516123,-0.006931494213124521,-0.0007855428880687578,0
48.5,2,-0.2670760017095786,0.052375740411565244,9.907693420661879,0.008190761994135572,0.06000593859395223,-0.01571003467783164,0
48.5,3,-0.10963074541558482,-0.04470200433297921,10.136744284896446,-0.05872732468337053,0.06143703386643395,0.147827621424296,0
48.5,4,0.08865424060699564,-0.18688212842870494,9.564351849024634,-0.0023774349388401197,0.010614127938543898,-0.09566925116375831,0
48.6,2,-0.2775895254500727,0.27847696400581623,9.388568891854014,-0.002144941070720222,0.15986146851668187,-0.0027814408719991977,0
48.6,3,0.030480222172577367,-0.23165363202777034,10.099545981712101,-0.007186108859170683,-0.06421889692321192,0.042767313348364235,0
48.6,4,-0.2616403777854853,-0.15915662381844944,10.194292715239776,0.019217456527112868,-0.027217041564377632,-0.06825162568378004,0
48.7,2,0.337808440329306,-0.26476276048687014,9.967591713963769,-0.02692060881740793,0.032789337910775394,-0.021775004788696872,0
48.7,3,0.12739770459069547,-0.042778890438584814,9.748910432727147,0.08029857084415618,-0.07315491069181748,0.03416027710783958,0
48.7,4,0.06341398117039534,-0.09133366016067515,9.945038322474005,-0.05024744970692058,-0.03970731667800381,0.006938993606865379,0
48.8,2,0.018079300480786934,0.3573781077305716,9.6928673737583,-0.008141817729174317,-0.08283687009380436,-0.08822053237966254,0
48.8,3,-0.282334644678263,0.0191166513727199,10.00539757974911,0.02841280869598477,-0.05668405413627525,-0.0328884095421051,0
48.8,4,0.003924182498891682,-0.12077976943495039,10.078584437974355,0.04525855949857978,-0.09487741820734127,-0.04600202512023595,0
48.9,2,-0.09558003331908742,-0.12528759988400814,9.476912410869309,-0.03438966435283519,-0.02549327197241378,-0.0043831594733326545,0
48.9,3,-0.12795168502625995,-0.06810450943256102,9.555097135665058,0.03839816585492493,0.07317161922535143,0.02078910190922251,0
48.9,4,0.038633847380674366,-0.36363161802230626,9.800446676617762,0.04416862573442372,0.022910166166285165,0.012531406878868338,0
49.0,2,-0.03440647035823598,0.349217251956028,9.800450455745837,0.04029144586767321,-0.08997065402927076,-0.031853597851077255,0
49.0,3,-0.33125153478796404,-0.5853815526309146,10.11540677237348,0.054390103701784376,0.04113395740972677,0.032377369506213484,0
49.0,4,0.028872567362138564,-0.05202862009429865,9.854335723108544,0.07146179094862253,-0.06625969125336068,-0.06480246883104505,0
49.1,2,-0.40741593754080246,-0.007993773375520706,9.688916312789326,0.0854128569972352,-0.043831685423369376,0.13391187290738132,0
49.1,3,0.11094655495087893,0.18593763907577351,9.832740004805173,0.047457588513066064,0.009133369413467594,-0.05059255409044843,0
49.1,4,0.0889958079453681,0.052876090460714155,9.343325998821982,0.02788314582732488,0.029486693150901744,-0.03800623976096796,0
49.2,2,-0.16946292754072942,-0.04526902909976481,9.797669257632252,-0.07368321646470342,0.026166740352202063,-0.020833483813893106,0
49.2,3,0.10484421346659448,-0.20235738544648973,9.571117183873298,0.040567730202328935,0.05600106116632502,0.061731730637404884,0
49.2,4,0.027640281489940244,-0.008327171745870344,9.562469709868203,-0.0006569511020657466,0.009631019360140547,0.012904945348798456,0
49.3,2,0.13938928472539075,0.06954274859555898,9.926227087155523,0.009454997640732056,-0.046280421905583666,-0.007333654490983405,0
49.3,3,0.03580054502398169,0.21564166817871233,10.218883976491858,-0.003623392181606561,0.032065436951203265,0.02733706055126328,0
49.3,4,0.2290986935253856,-0.11220012870486962,9.904933236100772,-0.03041886320892296,0.04113022419940081,0.037748117708886614,0
49.4,2,0.4419232846539508,0.18371882730589206,9.834466672034782,0.05062850530941825,-0.05402341882025111,0.025389211461453832,0
49.4,3,0.17244920607625536,0.22453254695145045,9.822709997727966,0.04899070209295827,-0.028038195702856206,0.05457379773750089,0
49.4,4,0.33205176067322373,0.20671837900041826,9.80209455971605,-0.020401574649992198,-0.03253832968878843,0.009094108329625272,0
49.5,2,-0.32299760123483695,0.11942858291460559,9.875168144110399,0.07423420055288522,-0.0062837260835170924,-0.02662604147071851,0
49.5,3,0.06956380509742564,-0.3681344720601965,9.731107765762085,-0.04726538296731099,0.06419937632866089,0.011897092270243869,0
49.5,4,-0.18471711920050077,-0.21815725643161624,9.990309182514839,-0.045357938790191565,-0.07842459092460936,0.06335283274052303,0
49.6,2,0.016495345182100808,0.21141224495281846,9.915624565813935,0.0029132176710262303,-0.017901700576545738,0.039393380026376004,0
49.6,3,0.09323427663216054,0.046435908326785215,9.96307471969457,-0.03540036353849276,-0.019817202772467485,-0.01580937430893673,0
49.6,4,-0.41341157574209975,-0.10172154819184419,9.752172122012976,0.045789572330179135,-0.04804385415568522,-0.02057768371643245,0
49.7,2,0.05492060067251919,0.0977183525898178,9.495025348927573,-0.005348406125044195,0.0622208494753166,-0.057672152058520755,0
49.7,3,0.18234853525572509,-0.21677925740884696,9.959054848335425,0.016326125350530168,0.0697272610888167,0.04339589773964558,0
49.7,4,0.2573320131499323,0.3491620139232104,9.713867688205116,-0.026529510760571192,0.08011009756085097,-0.013753520281047866,0
49.8,2,0.4811612561598623,0.3379556189349288,9.919542651588964,-0.01926075970960817,-0.04592499040952086,-0.032570353548919566,0
49.8,3,-0.0021299262278897373,-0.027612101610142173,9.845414186017885,-0.011927613613080531,-0.08594115152061262,-0.006185114489356026,0
49.8,4,-0.20987320269567045,0.09248960239540725,9.621363953699342,-0.054569139233537525,-0.0530372487844488,-0.019001716682403746,0
49.9,2,0.2909846832930047,0.2410977409351995,10.030582537419868,0.019073979549618286,-0.015545639286245007,-0.028482057355543475,0
49.9,3,-0.1629397447300085,-0.05619053978106521,9.874277491091773,0.08854188445111259,-0.06292553333072284,0.018283554036894155,0
49.9,4,0.0829013959213641,-0.0657808253831685,9.725291071931947,0.043581903373876275,-0.036314130751594974,0.07059517360706691,0
50.0,2,-0.04876906407380544,0.07524896910239731,9.994442154969843,0.00918004141110545,-0.0777688124383621,0.09067649075738982,0
50.0,3,-0.00801064537183301,-0.06607317919118308,9.589825146639967,0.03278780156887078,-0.08466572520365649,-0.0017178267023836985,0
50.0,4,0.2048026833290972,0.004703725666275785,9.735952404100216,0.024118081574304992,0.05035828765129319,-0.05658272109777616,0
50.1,2,-0.41331517172411447,0.1292928940537463,10.073889180211971,0.02253780050352781,0.01121466434803208,0.013069237378322114,0
50.1,3,-0.09470387321188828,-0.21442117631728302,9.711024211011988,-0.0067806799878464595,0.045790028141049426,0.09285542927366942,0
50.1,4,-0.11911926322513525,-0.4661363241412657,9.739802373643924,0.02269162965129923,-0.02254714110767474,-0.010388556251601745,0
50.2,2,0.2306522250826255,-0.13944036255163414,9.982585193074442,-0.04608294828256686,-0.03081467303059377,0.005739246800950732,0
50.2,3,0.10700045459043464,0.30402902774963547,10.027446411805917,-0.05383885061371207,-0.11834988735460904,-0.03521694671538114,0
50.2,4,-0.11110226012734159,-0.02848325467968212,9.990093324374985,-0.04316425594087291,-0.011274473990381756,-0.045513311207205344,0
50.3,2,0.06488264784513281,-0.2907400796547371,9.717715076114784,0.045478602224828454,0.021774999037727855,-0.00022847416816995506,0
50.3,3,-0.1927554310638975,0.06404460143540099,9.526116617401039,-0.007244483525640242,0.06898952395887445,-0.04478726883689304,0
50.3,4,-0.03980987469058045,-0.40688624926200334,9.504834623616949,0.01407191534783252,0.03403214564986166,0.020416729769995888,0
50.4,2,0.15518212580972265,0.14684286861068538,9.777127181228225,0.04525829824893078,-0.029380514445512342,0.03238972035025197,0
50.4,3,0.14971719545619455,0.19628847470427546,9.931302869731024,-0.06406033969439306,0.06091289607415132,0.032412983128525905,0
50.4,4,-0.12045534356075192,-0.009658727282621278,9.842855667580402,0.048617554369585425,0.049411133322518966,0.04547525614696674,0
50.5,2,0.00899365330556338,-0.19824574480103896,9.773700775370573,-0.030275658287077362,0.10675856959541215,0.025778161125924307,0
50.5,3,-0.11990459672550313,0.08418942390405426,9.667281382817364,-0.05331668751874774,-0.0024624637745024654,0.0492757956939561,0
50.5,4,0.03890976610693294,-0.04127395678725413,9.651570832134514,0.05833221515349629,0.031906880584419484,-0.054392329818924556,0
50.6,2,-0.11801322288928234,-0.2939719470234536,9.949368303176758,0.027262104531011952,0.02322505323342406,-0.04848794163236381,0
50.6,3,-0.11390550147423827,0.07131535793942603,9.815167465580812,0.012086745260352702,0.013001553478570417,-0.0522129768756234,0
50.6,4,0.21156730891932551,0.3304611155445525,10.158808098557822,0.10988263707027622,-0.005689717284415162,-0.023730708059741472,0
50.7,2,0.19373364431082088,0.5447566377195082,9.725046785458758,-0.03465051266403309,0.0045308986104713464,0.06337521088586763,0
50.7,3,-0.307197023815901,0.1172377446780007,9.495017547984864,-0.011058919813614265,0.015678890531943105,0.000738532380631086,0
50.7,4,0.20040168878114245,-0.45699545396277363,9.50029541128926,-0.024320598015643864,0.010730204067162644,0.07833959904113097,0
50.8,2,-0.18657560256628275,0.10016344710523367,10.328662173618563,0.005603905168822002,-0.019092934975839148,0.050824477863049604,0
50.8,3,-0.4140226335121733,0.03075083330935076,9.988463336722239,-0.04872382975791617,0.07215317741011026,-0.05817373603952926,0
50.8,4,-0.024377304223972555,0.17682773557829207,10.07006671504173,0.0010267924630673426,-0.0011230146001352755,-0.002833791320226224,0
50.9,2,-0.14028398338087197,0.20506755306582025,10.015387556020661,0.010649325205320293,0.035086098145060064,-0.010430758745257116,0
50.9,3,0.045462326041589236,0.3269875341860031,9.412367151232162,-0.017679204231821923,0.05706368081760831,0.09832391291762796,0
50.9,4,-0.027609349704181052,0.42775625689429786,9.99207377189562,-0.005785732334584907,0.01693155229630446,0.06519823834729298,0
51.0,2,-0.06544086865146498,-0.005929011241276528,9.515391668815894,0.05014586442584549,0.026316528302349568,-0.006321082773227076,0
51.0,3,0.1947910582673903,-0.08347085335429388,9.877354209425798,0.002364972286876654,-0.07270196993199342,0.05700275324889349,0
51.0,4,-0.25746413251738337,-0.21757801198598026,9.498433993582864,-0.04708222557823625,-0.03234371541910296,0.0354549022971822,0
51.1,2,-0.03805910605085396,-0.07142178895707835,9.410069281279828,-0.006706556792550285,0.03075808066061511,0.04318254268614848,0
51.1,3,-0.19886123801440503,-0.189296774071423,9.870454739862296,0.03847307448456105,-0.03942630781068333,-0.03755207146018094,0
51.1,4,0.009887885649095126,0.01331168366657263,9.499267963154379,0.037728423547721886,0.011220148197081246,-0.004467944793258333,0
51.2,2,-0.6096938866023178,0.12238842674028508,10.011797663656878,-0.028195507878080596,0.0776108869623896,-0.06742633765576253,0
51.2,3,0.09472967598148826,-0.13848675421690662,10.028876959012482,0.04385841439170289,0.02715691209782466,0.05651609120286605,0
51.2,4,0.17673075748554823,-0.20630015991446898,9.742366224779841,0.05996162460625955,-0.01970244469248013,0.0741326381155533,0
51.3,2,-0.3188135475584983,-0.05714414784299254,10.028257377834763,0.014844416203352818,0.018880454156957233,0.0429421685862919,0
51.3,3,-0.4627479143104431,0.39861579940972824,9.728607263970916,-0.07739619616451908,-0.06986369190752574,-0.06777401592546749,0
51.3,4,0.2431364456968862,-0.17524369493416403,9.865014632272976,-0.004486315959591454,-0.010328042177562608,0.04169481658786736,0
51.4,2,-0.134200575851918,0.1360509058201231,9.334791720929672,0.03087670364768575,-0.04072121370177305,0.011903473458980613,0
51.4,3,0.09979687319139607,-0.07092516190597731,9.732361008218124,0.08301379146269111,0.0060113189910659046,-0.051518422994608806,0
51.4,4,-0.25211796685565124,-0.3056211409813552,9.755613698156232,-0.024920319156838032,0.024304579834233883,0.033108105535313195,0
51.5,2,-0.209243367927941,0.4229068486795413,9.829911713483531,0.06787902166901767,-0.04778607209041669,0.04234419290242467,0
51.5,3,0.08021892845613915,0.11072997503934608,9.76003041879935,0.010404388520037989,0.04809245029425815,-0.037969585692998645,0
51.5,4,0.012738394182977146,0.09981566292186801,9.835051525393249,0.021337578403256955,0.00932377270061797,0.023637101902008007,0
51.6,2,-0.08007695939444694,0.23510769171513443,9.61490422713611,-0.016016139473002573,-0.1225825039937619,-0.08374588253093129,0
51.6,3,-0.14017403412327276,0.08029389128272552,10.283672303569725,0.02043462323262332,-0.01082500553277891,0.03942068229965717,0
51.6,4,0.366361124283525,-0.19023658630344925,9.834025576099814,-0.000923660368359372,0.04944148314022062,-0.12183424297482531,0
51.7,2,0.1887878338288924,-0.10542449289697094,9.631070685668593,-0.06744009710318838,-0.022741680119072794,-0.07263449566236649,0
51.7,3,-0.14723964531332887,-0.2081861388195598,9.955614772745566,-0.08533261364412917,0.028758889337166207,0.06421416037076032,0
51.7,4,-0.3266137888801077,0.13071615718967386,9.658298319218886,0.0021262369303129535,0.019297162133767476,0.004033796974210013,0
51.8,2,0.11047681811196977,-0.1102811769625442,9.505615715319326,0.01615021882054892,-0.03152772476800605,-0.07064282387726335,0
51.8,3,0.08313517958957224,-0.2573132797065951,9.867365924919982,0.08211606640639796,-0.03771233836166301,-0.03409481790941545,0
51.8,4,-0.0848403563694844,-0.22270806890350464,9.775710221056382,0.01513036575280055,0.04306546004696674,0.037539394397971826,0
51.9,2,0.13733518698810326,0.26959617225380283,10.268645978822983,-0.03101156206730464,0.033223583293349755,-0.023951804560414375,0
51.9,3,-0.2023261670809748,-0.258801137026442,9.438106945731876,-0.01377595338430309,-0.044156627299273506,0.053622877998446394,0
51.9,4,0.03831458059593679,0.03444976730342722,9.844557968505136,-0.04647379082992177,0.021758243681207178,-0.09045577164135746,0
52.0,2,-0.2698449578437537,-0.274614510335995,9.950211227017464,0.018814577919895627,0.017546557740762216,-0.013682209764537892,0
52.0,3,0.1015880585038044,-0.11784295109413874,9.958637546094817,-0.002961700589475653,0.03341258657687162,0.007388548594284833,0
52.0,4,0.23841482968881733,0.05805449556954974,9.896334074796382,0.05078532177014919,-0.018397189002804598,0.03027979141984082,0
52.1,2,-0.17678970518907328,-0.09751299484657128,10.139252996196264,-0.0370906208487908,0.03232377913941683,0.024703862903022386,0
52.1,3,0.18885427704981117,0.2125386684272962,9.757945367728803,-0.02961679974612183,-0.01793210079825179,0.07370742044313915,0
52.1,4,-0.06700768346331219,-0.11998698200797986,9.503669606950373,-0.06179168158041701,0.0008177116854144348,0.09585279410282231,0
52.2,2,-0.1952341091322092,0.0015691576603582343,9.856411509013222,0.022488086278142846,0.046330274507768644,0.001927328208790333,0
52.2,3,0.07559208207205347,0.05696872654266525,9.87046387614001,0.02809091923422199,-0.09415498856969971,0.01784470667034663,0
52.2,4,0.11868488515620286,-0.0953173187034354,10.028528015120624,-0.051331164128269505,0.055825070896392465,0.03338890072144509,0
52.3,2,0.07033077850727802,-0.1642897723087052,9.627697244378728,-0.066647807079551,0.001313605583786549,0.0574395565301878,0
52.3,3,-0.12083160887402052,0.12141028641012895,9.953631189042946,-0.017149463098103543,0.0278491008665077,-0.022483425510509816,0
52.3,4,-0.14738573462154225,0.01313870756454792,9.864644079434475,-0.03355148010281261,0.039160438450884315,0.02459775025634291,1
52.4,2,0.03331078060818969,0.0030545090049311527,9.854990369449535,0.020760054010992235,-0.08814457965504469,0.05157783643282036,0
52.4,3,0.06615191405396896,0.16883225577629069,9.433159716099826,-0.028765815573472027,0.032001666104918995,-0.007577857127070715,0
52.4,4,-0.2116689474676693,0.39265059472443864,10.069004347165501,-0.006851833605164945,0.06242898327064368,-0.020254340965185014,1
52.5,2,-0.021060990102596575,0.2670001165671356,9.82732459465161,0.04389826561218921,-0.08111133708002943,-0.06731639279304977,0
52.5,3,0.3324623500583916,0.3321412768412695,9.723636451750904,-0.0014389709321811844,0.059235059196626576,-0.023074673493122262,0
52.5,4,-0.09160677207607408,-0.5513458064441306,10.058764069549818,-0.024141316149263528,-0.0037739445417850574,-0.10115406560505158,1
52.6,2,0.0725468318558123,0.12993693546021012,9.769776068875322,-0.04815911141851982,0.07325538487573405,-0.00522117871725789,0
52.6,3,-0.1782633894612508,-0.05317607845305993,9.820902386930427,0.01837578371612074,-0.0003688736056863992,-0.00571112441045038,0
52.6,4,0.07975412729237835,-0.1948408715038274,9.856405769252524,-0.04859325660227463,0.04326893877612828,0.0053606049470679,1
52.7,2,-0.061968935401947624,0.08890644559484624,9.566624978451049,-0.05550130858752911,-0.06378130014055065,0.05542630849799945,0
52.7,3,0.06631565840364718,0.49203303363089107,10.127817575929228,-0.015771604431652056,-0.028477043316861347,-0.07285483373004573,0
52.7,4,-0.10564354137669803,0.3651402902146321,9.92006250828252,-0.028387708106246974,-0.01770428969206645,0.07461116489606437,1
52.8,2,0.030000008749993215,-0.035970886506151226,9.790751586520553,-0.014887652956439729,-0.06066921054437671,-0.029216798848843935,0
52.8,3,0.3641929105753299,-0.09159467954121885,9.796352613508766,-0.037644888934565184,-0.026743246695164858,-0.11942990492320951,0
52.8,4,0.05596774509640874,-0.11146138490014841,9.71153131742013,0.012220521306449832,-0.022879684765276537,-0.014290561498192822,1
52.9,2,-0.3288144991296029,-0.02400625491031525,10.078993985905603,-0.003568881867174896,-0.08193719143477429,0.056815555262926525,0
52.9,3,-0.17719013969891817,0.16294791093333894,9.527355382022506,-0.007860714305532934,-0.010684415406245073,0.026467146083066703,0
52.9,4,0.32289106154369374,0.012351799384318482,9.832590634236258,0.08732730659807308,0.023513139124783863,-0.0020383395696818123,1
53.0,2,-0.08852278101363263,-0.1803978019042253,9.716040357479477,0.02195488688978454,0.005414347476683918,0.03220688529152303,0
53.0,3,-0.3463796360474267,-0.21682123293387862,9.874751955615405,0.052889479872697334,0.0034114315790758952,-0.07343261941899987,0
53.0,4,0.03310869280139549,0.18320630290817874,9.993275645429987,0.028027189172303475,0.02503119907043477,-0.11065351229276091,1
53.1,2,0.16854237848175205,0.06626414439915403,9.893508467480506,0.009963659797153517,0.03905003138619728,-0.0686850780795886,0
53.1,3,-0.07237866519556793,0.32005616704221185,9.663733216643973,-0.0619869116629852,-0.050062230078208925,0.04221977112413974,0
53.1,4,0.04219343120685673,0.355441904079385,9.779737939815105,0.01818178798914599,0.07557637587465661,-0.10334017058567187,1
53.2,2,0.23019834571671957,0.42866880769048477,9.696009086378853,0.09509716609099475,0.013683247379251494,-0.06826461927158282,0
53.2,3,-0.17768066145393968,0.11955484736739086,9.706292928709978,-0.017756309181307755,-0.081789925902895,-0.082713390808563,0
53.2,4,-0.2541122095118614,0.03936910524857257,10.024060824911226,0.04275744238131188,-0.09395791226342677,0.008759910085872185,1
53.3,2,0.08763759502549327,0.12770501318371788,9.89036321386767,-0.06714804638578971,0.06446394729009251,-0.015140141999171292,0
53.3,3,0.39177817263195786,0.3964132621796881,9.73267730647855,0.09202863206063541,0.012821642568649717,0.035046222021604165,0
53.3,4,0.05755515635341815,0.4095365368560751,9.577232921144285,-0.0015772731012893262,0.021957496294390682,-0.11590822009605764,1
53.4,2,-0.00929910798705305,0.3643206504919902,9.659281245918033,-0.11891169086863931,0.02388434195360816,-0.069221383442483,0
53.4,3,0.28732496035449995,-0.0898612443918538,10.175830917938194,-0.03801839998941579,-0.022734730626998607,-0.06565017031386593,0
53.4,4,0.2825396672692099,0.47306549583591306,9.80103218018453,-0.028550559519138843,0.019453618979280423,0.01922849951887311,1
53.5,2,0.0702649379854792,0.08617270755951692,9.681407209385533,-0.05021023644989156,-0.01316313284786004,0.066310149079525,0
53.5,3,-0.05919991424550347,0.17310337222580058,9.901431409187683,0.007538615944597141,0.05771959979557617,-0.04372873905688179,0
53.5,4,0.08212354318918726,-0.3599859886255815,9.924726381284115,0.022086502393510905,-0.02941573033593736,-0.013631101890997947,1
53.6,2,0.17346109966140638,0.2476753248402128,9.936014626672964,-0.06307021040364012,0.015486508974458586,-0.08072635258363935,0
53.6,3,0.10607723960558878,-0.1103082134463463,9.669478393665596,0.024459108246253587,-0.014266795199315327,-0.010632731458806194,0
53.6,4,-0.19799455039824038,-0.48662753958618954,9.50871235536986,-0.03725461636171628,-0.009111193091602859,-0.0039059086893772008,1
53.7,2,0.10168084401932143,0.14427243281950264,9.77982953876131,-0.033960680421522414,-0.02387407354933727,0.07287420303818584,0
53.7,3,-0.019276837686495137,-0.10602160118701061,10.026463892609746,-0.07513241795924513,-0.08827256961553377,0.007265277505298769,0
53.7,4,0.08770068542063539,0.012556689734831851,9.696908195664838,-0.004774652011266153,-0.016913978278900486,0.014938916214398574,1
53.8,2,0.03955500402898182,0.3279190196268243,9.751408375586374,-0.09689949743805892,0.0011730203677939835,0.01456105064832218,0
53.8,3,0.30320938164400874,-0.11084578067933366,9.79250920363388,-0.0575736382492946,-0.04748952319646188,-0.061049232455002524,0
53.8,4,0.2114363184085586,0.13041660166729604,9.960057544816914,-0.05522488773960086,-0.04802281832745049,0.028079250081134967,1
53.9,2,-0.04369935749785201,-0.34912390346578065,9.816177435822135,0.0005396956020343738,0.04355598706848215,0.07775176675198989,0
53.9,3,0.16228081920660353,-0.07984875126275742,10.003524579475343,-0.061302038630482704,-0.03025180541186813,-0.0020920435202712506,0
53.9,4,0.10147516817747473,0.07187108193683432,9.76990111911985,-0.08017937630868538,0.0010884803630742958,-0.014569936024779804,1
54.0,2,-0.02236614780341185,0.26705495509518856,9.82116938266799,-0.06856353924480998,0.002078106404095796,-0.0413591458310528,0
54.0,3,-0.21757130769963987,0.2747281332501153,9.719716066802794,0.047979766877609485,-0.024803584196351623,0.07079068704759044,0
54.0,4,-0.38559876782551217,-0.1677953168056463,10.037316747445242,0.049214223562806345,0.006924276623554561,-0.02734124037757696,1
54.1,2,0.038394493211842004,-0.018207330656292996,9.703003745456005,-0.0007124888696457218,-0.009090423229219572,0.05124548353935954,0
54.1,3,0.16060854251731704,0.30632565547883234,10.013485714506993,0.00463781440745739,0.036468624001049964,0.016355788792577566,0
54.1,4,-0.2475974979016874,-0.31106728613915124,9.775624776244381,-0.059198630992733994,-0.0022933230784295496,0.001624782539185393,1
54.2,2,0.06855714287748343,0.006258652338000975,9.839552415653252,-0.06849558289111313,0.020188661686720576,0.06710515587572034,0
54.2,3,-0.19362813525709055,-0.0434920637633268,9.937717645590018,0.015833661909806642,-0.006780880872763172,-0.10213720058924536,0
54.2,4,0.12777567580408578,0.35076965539592453,9.497329289919275,-0.030224543638696068,-0.022331333372392542,0.0120109038126207,1
54.3,2,-0.29812137926752635,-0.16245029748663803,9.464916568466714,-0.04191847566760535,0.04242394397328976,-0.02695880230346641,0
54.3,3,-0.0645613461154669,-0.4698790025451085,9.785234717052981,0.0006478028125476427,0.02408373217177891,-0.04818144150190784,0
54.3,4,-0.18740971478062596,-0.06909139498886384,10.027939731383992,-0.05167741506472238,0.05006561569437743,-0.03486451473714632,1
54.4,2,-0.08786426851554557,-0.2333156768021826,9.98754038305178,0.051563671565093894,0.0026058653362565553,0.025014185118614946,0
54.4,3,0.38633917868084444,-0.21890166070564554,9.96888534736587,0.03384128135403686,0.024307700825396086,-0.07116088014516538,0
54.4,4,0.0755704362088313,-0.20854963563288884,10.168227694890303,0.046867163870387224,0.0031066702722089123,0.058577080432389905,1
54.5,2,0.0406554968748952,-0.16806303028616143,9.801820909858906,-0.035630334197425194,-0.04049575724693945,-0.02990043269110086,0
54.5,3,-0.2865651978806309,-0.1421080133777691,9.838590582246578,-0.033818540070250626,-0.022987681055933726,-0.006833996579937114,0
54.5,4,-0.2787219825663926,-0.021375126005626813,9.80165490126743,-0.01677353984537253,-0.004825652307817808,-0.00034333534282379616,1
54.6,2,-0.06472754108666118,0.044586337950945534,10.19703650299451,-0.0016424232065577569,0.019515848974705846,0.004035737044638036,0
54.6,3,0.4173441140844054,-0.057839653026717334,9.588567038841463,-0.07490788934335019,0.04286371186560774,-0.0473986905496803,0
54.6,4,-0.1759092162818258,0.16751577947397855,9.98542016125621,-0.006649349955436375,0.013701077698459041,-0.02217975362901783,1
54.7,2,-0.0274935479310931,0.2490396789473587,9.829616535368235,-0.03099831238721323,-0.06060085636679372,0.09220651152586767,0
54.7,3,0.32169948689159406,0.0022708377462035945,9.641390923183126,0.03279112086570695,0.00045499020810218317,-0.06162535291398377,0
54.7,4,-0.09872854489596411,0.006886972324092614,10.002557598836487,0.045045420240921216,-0.06159854815417461,-0.05573735813948092,1
54.8,2,-0.005318520232529601,-0.18183837001567676,9.599138175449866,0.11989265123028976,-0.020206159336178156,0.013679430726917054,0
54.8,3,0.10228372629745759,0.11928783409935109,9.73843723509712,-0.06771672443947581,-0.03163553694346632,-0.02902133162969536,0
54.8,4,0.17021401709027495,0.19155155074323565,10.171379300214173,-0.05190262907538208,-0.06183422407038333,0.007080068315013829,1
54.9,2,0.048352094189462146,0.015611703475960487,9.718627901379449,-0.019343770187979337,-0.029928644652645744,0.015370974774341973,0
54.9,3,-0.24532106864093853,0.08970979098611709,9.983110984976955,0.07243512665597165,0.015685134000029553,-0.04383057511130365,0
54.9,4,0.1619280081232164,0.1327096625548387,9.563835343592578,0.02543204051719042,0.05497242165136407,-0.004929637362029769,1
55.0,2,0.1632115137965954,-0.006757953049505776,10.193260518064994,-0.012117350458229127,0.02562513335179431,0.009279156634633875,0
55.0,3,-0.237481046634929,-0.053081237699827394,9.767202530762304,-0.010139296439030974,-0.033599309179226024,-0.005692879786217469,0
55.0,4,-15.01339963725398,0.2437650849721414,10.311674314939077,-0.13560207085516343,0.04557637951318612,0.008323201759253144,1
55.1,2,0.06082778832300815,-0.0590028502586088,9.514525010151905,-0.03246383066134492,0.06533358172238547,-0.0033164209573127526,0
55.1,3,0.07436522877190715,0.49016693606107353,9.64258561220267,0.07938536980480815,-0.033267841463635116,-0.01065283915416471,0
55.1,4,-0.21373140115631797,-0.06895801089947148,9.561395308645642,-0.02441953261159968,-0.08738072293852428,0.025179911861569856,0
55.2,2,0.19803337413899313,0.21215786923320482,9.706513747055833,0.03041489599891778,0.08670016847456873,0.007595476993632894,0
55.2,3,0.4597359232837979,0.3408532994594908,9.878041156160368,0.03486638336393779,0.046238672651995966,0.036769366589142476,0
55.2,4,14.921243314419279,-0.08032219227090558,9.654213964870838,-0.007281192619326072,-0.014836726361305896,0.05462650055218335,0
55.3,2,0.01951947549662971,-0.18595201636812003,9.880656198414195,-0.03640918094712805,0.029813647026853962,-0.056074591926433985,0
55.3,3,0.045170620452345385,0.12387082367889389,9.746144283870752,-0.06079795410549427,-0.05537928321213606,0.04502141066217132,0
55.3,4,-0.06309711858098825,0.24319208582167595,10.233876654884527,-0.04177250332568631,0.0899618708531098,0.07272209851832478,0
55.4,2,-0.24060511330652054,0.25157749035580373,9.651468910170692,-0.0049288411897683015,-0.005104476220592454,0.01231007539451861,0
55.4,3,0.10888290343126772,0.03985271907439047,9.879766556202668,-0.07975340716518582,-0.015271876209157563,0.02689531620881987,0
55.4,4,0.21108134139960383,-0.2777343737440538,9.99444758582343,-0.04132716820062969,0.008021664784678684,0.07431435216167537,0
55.5,2,-0.17099956498824034,0.24818976471871879,9.781189155668004,-0.03799975583993032,0.036839172954664844,-0.021922639017562362,0
55.5,3,0.09188244253127062,-0.10878367084601484,9.638995451184973,0.03884619639309014,0.105093811699263,0.013356669953102565,0
55.5,4,-0.13291410519234517,0.27705716281392584,9.570622346845045,0.045950159538136415,0.12296394771572927,0.014053179260176888,0
55.6,2,0.17955135100496455,-0.022827162745494914,9.606231852801933,0.06487459841534733,0.012116693559175294,-0.006491076437219987,0
55.6,3,0.17977106204141208,-0.3086328853257445,9.921624767207161,0.0627516633674802,-0.010436269087090673,0.03331591487512873,0
55.6,4,0.1598289783388945,0.0722703666857736,9.69619375330481,0.011341156177610702,0.08941171383868532,-0.01708053241626994,0
55.7,2,0.3521292402112973,0.05378530736034161,9.66379559324569,0.0360417959999614,0.12237753044843194,0.020076012524169264,0
55.7,3,-0.29223062028773844,-0.1489856202954474,9.382873587005243,-0.045978011094678604,-0.04107834101243442,0.07672147108516388,0
55.7,4,0.09119163987818592,0.10651177605858196,9.841018811105398,0.017998250119297784,0.011178413230641705,0.009703323677118514,0
55.8,2,-0.009313526021284048,-0.17545838319048546,9.909834465145687,0.011647787598599803,0.004873652053013064,0.06700361243699236,0
55.8,3,-0.06702745962757233,-0.014424518608734706,9.72415872993783,-0.1122275523321477,-0.07963661155127648,0.03486816802735996,0
55.8,4,-0.37853229730730237,0.06952960475265202,10.28079897065417,0.007877993669137303,-0.12941864269293496,-0.12563511067907143,0
55.9,2,0.07662014752519009,-0.12416347241205412,9.548700756436551,-0.013018021777913037,0.0561715042170589,0.06013834774200735,0
55.9,3,0.006824728360595463,0.2514297496434305,9.970982276951814,-0.003126865934042598,-0.07134528133179989,-0.06385359821447989,0
55.9,4,0.04000661482423895,-0.11310179108171269,9.847143561366662,0.044358075179062983,-0.07800846852116954,0.08490278908682343,0
56.0,2,-0.13676926298013184,-0.15495346491519407,9.723378977921922,-0.030257384765888726,0.07067842382346871,0.11868785727228935,0
56.0,3,-0.21336013824112654,-0.11840238358966171,9.600000263489273,0.019431769061504185,0.04576688003334869,0.011435415444656188,0
56.0,4,0.2861984766426374,0.10591324177177507,10.106590465470905,-0.06388319388878759,0.07550714151308746,0.029720558224007806,0
56.1,2,-0.09720263788567672,0.1558213011548779,9.961339254308225,0.04058434863103486,0.06108277783476282,0.038878774259123304,0
56.1,3,-0.09372143196700324,0.3511535163888339,9.63121727966029,-0.022613194992424063,0.032849518451826494,-0.04957418895776175,0
56.1,4,0.3356348949650652,0.045715078555519956,9.692873711134217,0.04149135139053001,-0.079522624187779,0.05315563446932692,0
56.2,2,-0.06520926327546188,0.016612389195022004,9.631626978694953,-0.03456819572558079,0.046836330421102135,0.016235629363606827,0
56.2,3,-0.05179105474459116,-0.2763100061359478,10.101249204181302,-0.002048794787151219,-0.005109445880230181,0.0333231373448051,0
56.2,4,-0.16870068737356003,0.1566763461626172,9.66342527893691,-0.06698342270597338,-0.06587841081595312,-0.022933051746814703,0
56.3,2,-0.032276736592141746,0.005092698375687352,9.893239856652137,0.020869705631099737,-0.008574517663974008,-0.09046285062845319,0
56.3,3,-0.09614443978657827,0.040337837418317535,9.880330888543934,-0.08517443351318545,0.012424668981184366,-0.040349948280189674,0
56.3,4,0.25076143355984837,-0.0010752833098136795,9.672641520004097,0.06341647690765272,-0.0003887512771501764,-0.03368939399907183,0
56.4,2,-0.05677009523457965,-0.22374048921523948,9.377219472175213,0.06838041413772367,-0.08105973468309723,0.000198968078999765,0
56.4,3,0.28981893280493576,0.31644818846897815,9.895836916835165,0.056940748107672995,0.0405541553158186,0.029920466446116636,0
56.4,4,0.34482108028185815,0.29599757455242326,9.61869953955749,0.07930604993808793,-8.75781577461217e-06,-0.06731549522007906,0
56.5,2,0.134350351939319,0.02495096660776499,9.99470992160948,0.09943239531777583,-0.05308761356008284,0.013744316980287635,0
56.5,3,-0.3307785390215554,-0.18598551710966366,9.775096832718763,0.018882018192681444,0.01900002099345377,-0.0014206329572291647,0
56.5,4,-0.3326055053233126,0.35147683851067674,9.90929970550405,-0.06276736589294751,-0.1403855339638057,0.07649055146598793,0
56.6,2,0.30526649267652584,0.2757019711801442,9.651774585222348,-0.0481880082059902,-0.022692999177215907,-0.013394450816466667,0
56.6,3,0.02754934898339567,-0.051468377561488116,9.84342196620541,-0.03457882357613761,-0.0355522685041464,0.0022352359052856207,0
56.6,4,-0.278393843543243,0.15450001646149708,9.856892678068528,-0.018113788285820553,0.012861846978271828,0.02767201910682281,0
56.7,2,0.09455543786539967,0.11109438345206922,9.844087727332269,-0.006122694387035852,0.023020198035723805,0.011816248274427704,0
56.7,3,-0.2215173108380499,0.05234045087724744,9.617244834437507,-0.008075698200055137,-0.05300794572584701,0.03624115876548285,0
56.7,4,0.19008055149725764,-0.10128190971570838,9.72286131512202,0.02678959176662728,-0.05327077066950763,0.11701864296006054,0
56.8,2,0.004979686717685371,-0.2735174921269807,9.508841406012444,0.09151670611340465,-0.0004405473359551669,0.11000454670770457,0
56.8,3,-0.13644761144118364,0.12741692885049438,9.851322747225307,0.04698576748481856,0.0014488855332303143,0.03180625393334496,0
56.8,4,0.12412254823635045,0.013076783785904607,9.720506164340415,0.06369655884101147,0.1478850332013136,0.011778560903081594,0
56.9,2,-0.20303039318668034,0.34070877570975805,9.923714920936527,0.029577280843903427,-0.022579928085688313,0.040013026395066376,0
56.9,3,-0.0720533835903527,-0.22993313071305158,9.810711004667395,-0.0037714388183036104,-0.03713645506551254,0.12630461077508914,0
56.9,4,-0.10294034696350592,0.053361191289564215,9.774331171252884,-0.01359055619911599,-0.0007330080142965007,0.059155094806532985,0
57.0,2,-0.014207854574872223,0.3424976835345063,9.530573296281233,0.013243845606905145,-0.0013004544844250803,-0.042054860406335076,0
57.0,3,0.20438540652163992,0.017090812779720934,9.721629390374458,0.03404650094965567,-0.07507635863119455,-0.09134792180284644,0
57.0,4,0.06272263476421674,0.17750310721497176,10.153300354434345,-0.005988016356941307,-0.0461687061713103,-0.07664877581104856,0
57.1,2,0.044654140288929334,-0.09908231095471365,9.831351272682923,0.05966100247762765,-0.07073974923035255,-0.08911791784074778,0
57.1,3,-0.16946332959986574,0.3324350834076804,9.86168820438351,0.032332203446197465,-0.003401974275278526,0.008142170956080276,0
57.1,4,0.2013031952636275,-0.253970070818626,9.584201731174742,-0.047734179786229174,-0.05371678989279849,-0.052042466751718613,0
57.2,2,0.44667100402735765,-0.34187821737720525,9.998075551193297,0.04012163448837191,-0.054492423584711784,-0.1306688934408725,0
57.2,3,0.01909525479238262,-0.31580864519319946,9.687340827991004,-0.01730639043815983,-0.005834502888621637,0.04186538905170866,0
57.2,4,-0.5445042139516492,0.11826294482633436,9.728574765264991,-0.06980772339909688,-0.021753212074011645,0.07426188579335483,0
57.3,2,-0.3754523975213772,-0.2792517407685139,9.779264573193872,0.026517407059093674,0.0303131551667071,-0.1103380681467199,0
57.3,3,0.1140993556540809,0.25627790352340085,9.866893541000318,0.0029690485504763955,-0.045239564902689565,-0.017555426384069855,0
57.3,4,-0.11251039360581128,-0.0934766491641338,9.980604615458669,-0.06846376270149027,0.017819424597419548,-0.0509329783569658,0
57.4,2,-0.2077366500871224,0.06725890815803486,9.69529126296491,-0.007759672878506655,-0.016142418661996547,0.06260688875602285,0
57.4,3,0.03712760246133795,0.33975836940804727,9.60815761363201,-0.009658925687534126,-0.07754948370965667,0.045883132125117396,0
57.4,4,0.29628057087874876,-0.17759741170918197,9.993471404643993,0.026824812195415035,-0.054346452776699444,-0.011948308265036178,0
57.5,2,-0.16110560816475838,-0.020885334788587007,10.153245645980704,-0.12319509829791231,0.05268873424697771,0.020765607053245937,0
57.5,3,0.23424786720527033,-0.3121940053485324,9.53111964794148,0.027789690224508765,-0.07352256193272759,0.062119831875177015,0
57.5,4,-0.13248842093206706,0.04599265445296653,9.887948932293494,0.09963543675477908,-0.04065765542986936,-0.0345746856958152,0
57.6,2,0.16990507188006465,0.042919810730449155,9.760024686351937,0.03873120185810723,0.08765976704457847,0.009911928976041014,0
57.6,3,0.23248603440449844,-0.26354652193572775,9.697242778271235,0.012646390492573779,-0.07240530518735987,0.015171607478117789,0
57.6,4,0.19660325411123558,0.1229709059845124,9.871314055631615,-0.05153105111669298,0.014462426367361825,0.009874182627182065,0
57.7,2,0.29286584404695426,0.07067152559076738,9.907357272671318,-0.03878416226743195,-0.0205290818238495,-0.005802729011408442,0
57.7,3,-0.11023602637998582,0.2053424786942029,9.90960156801581,0.015111307012315254,0.00227521447438182,-0.04873272644432277,0
57.7,4,-0.020661986997419036,0.07565749827295412,9.70420307197372,-0.07565165044105426,-0.004575692279924981,0.03987120505158398,0
57.8,2,-0.023796071025912018,0.12362047141393473,9.73376562737274,-0.10652424089546345,0.03698499319222883,-0.019851099172301736,0
57.8,3,-0.1399950482516593,0.19317135557824494,9.723219075120749,0.047753786577281965,-0.07330869399281628,0.01281774547032353,0
57.8,4,0.13231151428588275,0.3250538900479285,9.569326839352561,-0.0007674693286510649,0.09824689829671368,0.004514055778649886,0
57.9,2,0.09575447244303234,-0.04941575442606525,9.76980211425843,-0.0678114965559736,-0.01725826946319934,-0.004368670396800213,0
57.9,3,0.42607714601621915,0.2691307846214677,9.561817075671577,0.09722273438926887,0.03715231793653169,0.0314636342492302,0
57.9,4,0.0505889968299309,-0.21839563930159916,9.93173299409324,-0.03936158773661163,0.04759318493914737,-0.05290933942773677,0
58.0,2,-0.09680437100255537,-0.1115829881030177,9.912055618310545,-0.0914035870892956,-0.027356691582600148,0.09208023414180955,0
58.0,3,-0.047019185614818174,0.023187105427914904,10.146232023908208,0.034398754486188475,0.08043924046251161,0.04033980785364278,0
58.0,4,0.15084035281445762,-0.049421136959517185,9.987118603244749,-0.0916305944201477,0.08562576931404181,0.01550267756573223,0
58.1,2,-0.014734568975062957,-0.16254665423875264,9.754995883912201,-0.01723509761631045,0.03677475872593951,-0.060776688481566456,0
58.1,3,0.09249314924895587,-0.2548230905628885,9.339394329513667,-0.019476374980129926,0.11721435616323767,0.03766988797772401,0
58.1,4,0.13586366278088524,-0.3097906850798042,10.217656326336325,0.10264983258637417,-0.09143900428271556,0.002027768738194317,0
58.2,2,-0.28912875991894527,-0.06080351400316789,9.541870481006718,0.001719011326413476,-0.023297578853299222,-0.09625407401878384,0
58.2,3,-0.17999234597648694,-0.1146506459281576,9.4840907828563,-0.02337597524221157,-0.04823630003413119,-0.05004901930240172,0
58.2,4,0.2850132887608587,-0.15652373158102523,9.947108595954369,0.01988277843631322,-0.0825406924763897,-0.006670202444476166,0
58.3,2,-0.40023785358973873,-0.16715749056210116,9.686840193828939,0.02110161785217664,-0.053479009187966456,-0.007683076001690796,0
58.3,3,0.09093843700979895,0.10364488814664584,9.849257807957654,-0.0042085923031348685,-0.007371868593170958,0.07333482536488155,0
58.3,4,-0.2120286635173829,0.06693213013745633,9.40561357719257,0.0052891230293672965,-0.04949068567351502,0.008303619894325693,0
58.4,2,-0.05363800178184147,-0.036175473600668716,9.705641061761293,-0.05235397713588827,0.053649508772874256,0.024304168202477237,0
58.4,3,-0.11211669833999685,0.1984470673368826,9.857143912016708,0.09002817126240285,-0.07842629684481262,-0.03789710754702151,0
58.4,4,0.13778319267480435,0.20543666691854845,9.932025128168801,-0.03569637149944993,-0.05323610517874936,-0.015086102219629097,0
58.5,2,0.10793585483455653,0.03982762085512778,9.990391039661207,0.00030193784654321986,-0.06177097805967355,0.0994294122325358,0
58.5,3,-0.0747475363984744,0.3652236598083945,10.001378769874622,0.022449915584756338,-0.03045305344586079,0.026009668380022923,0
58.5,4,-0.14882836176559297,-0.14022767113732884,9.796327777128216,-0.019677318634235882,-0.09062543666874276,0.024724893703492085,0
58.6,2,-0.2510419453315952,0.000470702871168117,9.826520432555336,0.008779245616253985,0.13777066708509642,-0.009688916713920291,0
58.6,3,0.030055102301748383,-0.18329136684276834,10.102193099104438,0.022885717664691392,-0.011794721499869744,-0.12712961109639292,0
58.6,4,0.2766105917649688,0.3350361183985892,9.761955549998515,0.04026195068967338,-0.04430538578859989,-0.026449195483743623,0
58.7,2,0.02686227257164403,0.15303140911362836,9.968062529577141,0.058681582703180316,0.015540296093185496,0.06436393653505844,0
58.7,3,-0.08313179874468953,-0.09451413745901573,10.2174052042484,-0.031573287264076946,0.0453234524466052,0.002920633183598962,0
58.7,4,0.10859040628379912,0.033179039676812024,9.94769680562818,0.13200165476612669,0.06778619082568821,0.06408658664828472,0
58.8,2,-0.2266614909240976,0.12280899350864971,9.345448730562223,0.07432255946179027,0.008532230354411573,-0.06075672978730445,0
58.8,3,-0.22400692669774425,0.10374050787992904,9.781565459570327,0.07954049844616294,0.02039360482496842,0.029949427525403766,0
